File: XRD_Tool/XRD_Tool/bin/Debug/20180602-log.txt
[2018-06-02 17:11:59 180]Log Start******************************************************

[2018-06-02 17:12:11 906] [UserLogin] login succeed!user=administrator,pwd=123456

[2018-06-02 17:12:12 015] [DeviceInit] Init Start
2F0D
[2018-06-02 17:12:12 015] UART Send: [/
]
0D0A433D
[2018-06-02 17:12:12 171] UART Recv: @1[
C=]
5246460D
[2018-06-02 17:12:12 171] UART Send: [RFF
]
5246460D0A2B2B3130310D0A433D
[2018-06-02 17:12:12 312] UART Recv: @1[RFF
++101
C=]
524B4D0D
[2018-06-02 17:12:12 312] UART Send: [RKM
]
524B4D0D30392E39330D200D30342E37390D0A433D
[2018-06-02 17:12:12 453] UART Recv: @1[RKM
09.93

04.79
C=]

[2018-06-02 17:12:13 163] [DeviceInit] warmup check=True

[2018-06-02 17:12:14 222] [DeviceInit] warmup confirm=False

[2018-06-02 17:12:14 222] [DeviceInit] warmup skip, GetDeviceZeroPoint
5041520D
[2018-06-02 17:12:14 222] UART Send: [PAR
]
5041520D0A4C574C33300D0A55504C37350D0A535045302E30320D0A535450302E30320D0A494E54302E30350D0A4D584E31300D0A4D5854310D0A4D5853302E3030350D0A4D4F44330D0A574156312E35343138340D0A54535A2034352E333530300D0A54445A2031392E333135300D0A0A433D
[2018-06-02 17:12:14 379] UART Recv: @1[PAR
LWL30
UPL75
SPE0.02
STP0.02
INT0.05
MXN10
MXT1
MXS0.005
MOD3
WAV1.54184
TSZ 45.3500
TDZ 19.3150

C=]
5041460D
[2018-06-02 17:12:14 379] UART Send: [PAF
]
5041460D
[2018-06-02 17:12:14 520] UART Recv: @1[PAF
]
0A5A54412D3030332E333634370D0A0A5A54422D3030312E313037390D0A0A5A54582D3035302E343033350D0A0A5A54592D3035302E383132350D0A0A5A545A2D3030352E303030300D0A0A5354503030302E303230300D0A0A494E543030312E303030300D0A0A535045303034380D0A0A433D
[2018-06-02 17:12:14 802] UART Recv: @1[
ZTA-003.3647

ZTB-001.1079

ZTX-050.4035

ZTY-050.8125

ZTZ-005.0000

STP000.0200

INT001.0000

SPE0048

C=]
534450310D
[2018-06-02 17:12:14 802] UART Send: [SDP1
]
534450310D
[2018-06-02 17:12:14 942] UART Recv: @1[SDP1
]
0A433D
[2018-06-02 17:12:15 083] UART Recv: @1[
C=]

[2018-06-02 17:12:15 083] [DeviceInit] Init Finish

[2018-06-02 17:12:16 317] [Parent] Menu Measure

[2018-06-02 17:12:16 472] [Measure] check 5 Axis=Unchecked

[2018-06-02 17:12:17 901] [Measure] ButtonStart

[2018-06-02 17:12:33 149] [Measure] ButtonStart

[2018-06-02 17:12:55 259] [Measure] Measure Start
2F0D
[2018-06-02 17:13:00 504] UART Send: [/
]
0D0A433D
[2018-06-02 17:13:00 579] UART Recv: @2[
C=]
4D4F44330D
[2018-06-02 17:13:01 390] UART Send: [MOD3
]
4D4F44330D0A4D4F44330D0A4D4F44330D0A433D
[2018-06-02 17:13:01 520] UART Recv: @2[MOD3
MOD3
MOD3
C=]
494E54302E30350D
[2018-06-02 17:13:02 249] UART Send: [INT0.05
]
494E54302E30350D0A494E54302E30350D0A494E54302E30350D0A433D
[2018-06-02 17:13:02 406] UART Recv: @2[INT0.05
INT0.05
INT0.05
C=]
535450302E30320D
[2018-06-02 17:13:03 141] UART Send: [STP0.02
]
535450302E30320D0A535450302E30320D0A535450302E30320D0A433D
[2018-06-02 17:13:03 281] UART Recv: @2[STP0.02
STP0.02
STP0.02
C=]
535441300D
[2018-06-02 17:13:04 079] UART Send: [STA0
]
535441300D
[2018-06-02 17:13:04 219] UART Recv: @2[STA0
]
0A433D202020302E303030300D0A433D
[2018-06-02 17:13:17 640] UART Recv: @2[
C=   0.0000
C=]
53414E3135300D
[2018-06-02 17:13:22 566] UART Send: [SAN150
]
53414E3135300D
[2018-06-02 17:13:22 629] UART Recv: @2[SAN150
]
0A433D
[2018-06-02 17:13:23 775] UART Recv: @2[
C=]
534B4D32352033300D
[2018-06-02 17:13:24 822] UART Send: [SKM25 30
]
534B4D32352033300D
[2018-06-02 17:13:24 962] UART Recv: @2[SKM25 30
]
0A433D
[2018-06-02 17:13:29 684] UART Recv: @2[
C=]
524B4D0D
[2018-06-02 17:13:31 584] UART Send: [RKM
]
524B4D0D32342E39360D200D33302E30320D0A433D
[2018-06-02 17:13:31 663] UART Recv: @2[RKM
24.96

30.02
C=]

[2018-06-02 17:13:31 663] [Measure] totalcount=251
53484F0D
[2018-06-02 17:13:32 689] UART Send: [SHO
]
53484F0D0A433D
[2018-06-02 17:13:32 845] UART Recv: @2[SHO
C=]
535343350D
[2018-06-02 17:13:35 696] UART Send: [SSC5
]

[2018-06-02 17:13:35 696] CountDown start[0,42]
535343350D0A203135302E303030302020202020203131390D
[2018-06-02 17:13:35 837] UART Recv: @2[SSC5
 150.0000      119
]

[2018-06-02 17:13:35 837] [Measure] analyzecount=1recvcount=1
0A203135302E303230302020202020203132310D0A203135302E303430302020202020203131330D
[2018-06-02 17:13:35 962] UART Recv: @2[
 150.0200      121
 150.0400      113
]
[2018-06-02 17:15:09 249]Log Start******************************************************

[2018-06-02 17:15:10 031] [UserLogin] login succeed!user=administrator,pwd=123456

[2018-06-02 17:15:10 156] [DeviceInit] Init Start
2F0D
[2018-06-02 17:15:11 850] UART Send: [/
]
0D0A433D
[2018-06-02 17:15:11 990] UART Recv: @1[
C=]
5246460D
[2018-06-02 17:15:13 366] UART Send: [RFF
]
5246460D0A2B2B3130310D0A433D
[2018-06-02 17:15:13 505] UART Recv: @1[RFF
++101
C=]
524B4D0D
[2018-06-02 17:15:14 196] UART Send: [RKM
]
524B4D0D32342E39360D200D33302E30320D0A433D
[2018-06-02 17:15:14 336] UART Recv: @1[RKM
24.96

30.02
C=]

[2018-06-02 17:15:16 155] [DeviceInit] warmup check=False

[2018-06-02 17:15:16 155] [DeviceInit] warmup skip, GetDeviceZeroPoint
5041520D
[2018-06-02 17:15:17 138] UART Send: [PAR
]
5041520D0A4C574C33300D0A55504C37350D0A535045302E30320D0A535450302E30320D0A494E54302E30350D0A4D584E31300D0A4D5854310D0A4D5853302E3030350D0A4D4F44330D0A574156312E35343138340D0A54535A2034352E333530300D0A54445A2031392E333135300D0A0A433D
[2018-06-02 17:15:17 279] UART Recv: @1[PAR
LWL30
UPL75
SPE0.02
STP0.02
INT0.05
MXN10
MXT1
MXS0.005
MOD3
WAV1.54184
TSZ 45.3500
TDZ 19.3150

C=]
5041460D
[2018-06-02 17:15:18 031] UART Send: [PAF
]
5041460D
[2018-06-02 17:15:18 187] UART Recv: @1[PAF
]
0A5A54412D3030332E333634370D0A0A5A54422D3030312E313037390D0A0A5A54582D3035302E343033350D0A0A5A54592D3035302E383132350D0A0A5A545A2D3030352E303030300D0A0A5354503030302E303230300D0A0A494E543030312E303030300D0A0A535045303034380D0A0A433D
[2018-06-02 17:15:18 467] UART Recv: @1[
ZTA-003.3647

ZTB-001.1079

ZTX-050.4035

ZTY-050.8125

ZTZ-005.0000

STP000.0200

INT001.0000

SPE0048

C=]
534450310D
[2018-06-02 17:15:19 156] UART Send: [SDP1
]
534450310D
[2018-06-02 17:15:19 297] UART Recv: @1[SDP1
]
0A433D
[2018-06-02 17:15:19 441] UART Recv: @1[
C=]

[2018-06-02 17:15:19 442] [DeviceInit] Init Finish

[2018-06-02 17:15:21 282] [Parent] Menu Measure

[2018-06-02 17:15:21 412] [Measure] check 5 Axis=Unchecked

[2018-06-02 17:15:22 176] [Measure] ButtonStart

[2018-06-02 17:15:24 640] [Measure] Measure Start
2F0D
[2018-06-02 17:15:25 683] UART Send: [/
]
0D0A433D
[2018-06-02 17:15:25 761] UART Recv: @2[
C=]
4D4F44330D
[2018-06-02 17:15:26 495] UART Send: [MOD3
]
4D4F44330D0A4D4F44330D0A4D4F44330D0A433D
[2018-06-02 17:15:26 651] UART Recv: @2[MOD3
MOD3
MOD3
C=]
494E54302E30350D
[2018-06-02 17:15:27 323] UART Send: [INT0.05
]
494E54302E30350D0A494E54302E30350D0A494E54302E30350D0A433D
[2018-06-02 17:15:27 455] UART Recv: @2[INT0.05
INT0.05
INT0.05
C=]
535450302E30320D
[2018-06-02 17:15:28 120] UART Send: [STP0.02
]
535450302E30320D0A535450302E30320D0A535450302E30320D0A433D
[2018-06-02 17:15:28 261] UART Recv: @2[STP0.02
STP0.02
STP0.02
C=]
535441300D
[2018-06-02 17:15:28 951] UART Send: [STA0
]
535441300D0A433D202020302E303030300D0A433D
[2018-06-02 17:15:29 092] UART Recv: @2[STA0
C=   0.0000
C=]
53414E3135300D
[2018-06-02 17:15:29 780] UART Send: [SAN150
]
53414E3135300D
[2018-06-02 17:15:29 921] UART Recv: @2[SAN150
]
0A433D
[2018-06-02 17:15:31 187] UART Recv: @2[
C=]
534B4D32352033300D
[2018-06-02 17:15:32 535] UART Send: [SKM25 30
]
534B4D32352033300D
[2018-06-02 17:15:32 614] UART Recv: @2[SKM25 30
]
0A433D
[2018-06-02 17:15:35 852] UART Recv: @2[
C=]
524B4D0D
[2018-06-02 17:15:37 033] UART Send: [RKM
]
524B4D0D32342E39360D200D33302E30320D0A433D
[2018-06-02 17:15:37 111] UART Recv: @2[RKM
24.96

30.02
C=]

[2018-06-02 17:15:37 111] [Measure] totalcount=251
53484F0D
[2018-06-02 17:15:37 927] UART Send: [SHO
]
53484F0D0A433D
[2018-06-02 17:15:38 068] UART Recv: @2[SHO
C=]
535343350D
[2018-06-02 17:15:38 919] UART Send: [SSC5
]

[2018-06-02 17:15:38 934] CountDown start[0,42]
535343350D0A203135302E303030302020202020203133330D0A203135302E303230302020202020203132330D
[2018-06-02 17:15:39 075] UART Recv: @2[SSC5
 150.0000      133
 150.0200      123
]

[2018-06-02 17:15:39 075] [Measure] analyzecount=2recvcount=2
0A203135302E303430302020202020203132320D0A203135302E303630302020202020203135320D
[2018-06-02 17:15:39 247] UART Recv: @2[
 150.0400      122
 150.0600      152
]

[2018-06-02 17:15:39 247] [Measure] analyzecount=2recvcount=4
0A203135302E303830302020202020203132340D0A203135302E313030302020202020203131350D
[2018-06-02 17:15:39 372] UART Recv: @2[
 150.0800      124
 150.1000      115
]

[2018-06-02 17:15:39 372] [Measure] analyzecount=2recvcount=6
0A203135302E313230302020202020203131390D0A203135302E313430302020202020203133330D0A203135302E313630302020202020203132390D
[2018-06-02 17:15:39 526] UART Recv: @2[
 150.1200      119
 150.1400      133
 150.1600      129
]

[2018-06-02 17:15:39 526] [Measure] analyzecount=3recvcount=9
0A203135302E313830302020202020203134300D0A203135302E323030302020202020203133310D0A203135302E323230302020202020203131370D
[2018-06-02 17:15:39 713] UART Recv: @2[
 150.1800      140
 150.2000      131
 150.2200      117
]

[2018-06-02 17:15:39 713] [Measure] analyzecount=3recvcount=12
0A203135302E323430302020202020203133320D0A203135302E323630302020202020203133370D
[2018-06-02 17:15:39 901] UART Recv: @2[
 150.2400      132
 150.2600      137
]

[2018-06-02 17:15:39 901] [Measure] analyzecount=2recvcount=14

[2018-06-02 17:15:39 963] CountDown Run[0,42]
0A203135302E323830302020202020203133310D0A203135302E333030302020202020203136390D
[2018-06-02 17:15:40 026] UART Recv: @2[
 150.2800      131
 150.3000      169
]

[2018-06-02 17:15:40 042] [Measure] analyzecount=2recvcount=16
0A203135302E333230302020202020203133370D0A203135302E333430302020202020203132390D
[2018-06-02 17:15:40 151] UART Recv: @2[
 150.3200      137
 150.3400      129
]

[2018-06-02 17:15:40 151] [Measure] analyzecount=2recvcount=18
0A203135302E333630302020202020203135350D0A203135302E333830302020202020203134380D0A203135302E34303030202020
[2018-06-02 17:15:40 292] UART Recv: @2[
 150.3600      155
 150.3800      148
 150.4000   ]

[2018-06-02 17:15:40 292] [Measure] analyzecount=2recvcount=20
2020203134300D0A203135302E343230302020202020203134380D0A203135302E343430302020202020203135340D
[2018-06-02 17:15:40 432] UART Recv: @2[   140
 150.4200      148
 150.4400      154
]

[2018-06-02 17:15:40 432] [Measure] analyzecount=3recvcount=23
0A203135302E343630302020202020203135330D0A203135302E343830302020202020203132390D
[2018-06-02 17:15:40 603] UART Recv: @2[
 150.4600      153
 150.4800      129
]

[2018-06-02 17:15:40 603] [Measure] analyzecount=2recvcount=25
0A203135302E353030302020202020203134320D0A203135302E353230302020202020203132370D
[2018-06-02 17:15:40 743] UART Recv: @2[
 150.5000      142
 150.5200      127
]

[2018-06-02 17:15:40 743] [Measure] analyzecount=2recvcount=27
0A203135302E353430302020202020203134390D0A203135302E353630302020202020203134320D
[2018-06-02 17:15:40 869] UART Recv: @2[
 150.5400      149
 150.5600      142
]

[2018-06-02 17:15:40 869] [Measure] analyzecount=2recvcount=29

[2018-06-02 17:15:40 931] CountDown Run[1,42]
0A203135302E353830302020202020203134390D0A203135302E363030302020202020203132360D0A203135302E363230302020202020203136360D
[2018-06-02 17:15:41 009] UART Recv: @2[
 150.5800      149
 150.6000      126
 150.6200      166
]

[2018-06-02 17:15:41 009] [Measure] analyzecount=3recvcount=32
0A203135302E363430302020202020203136370D0A203135302E363630302020202020203137330D0A203135302E363830302020202020203135380D
[2018-06-02 17:15:41 197] UART Recv: @2[
 150.6400      167
 150.6600      173
 150.6800      158
]

[2018-06-02 17:15:41 197] [Measure] analyzecount=3recvcount=35
0A203135302E373030302020202020203134390D0A203135302E373230302020202020203135370D
[2018-06-02 17:15:41 384] UART Recv: @2[
 150.7000      149
 150.7200      157
]

[2018-06-02 17:15:41 384] [Measure] analyzecount=2recvcount=37
0A203135302E373430302020202020203135360D0A203135302E373630302020202020203135320D
[2018-06-02 17:15:41 514] UART Recv: @2[
 150.7400      156
 150.7600      152
]

[2018-06-02 17:15:41 514] [Measure] analyzecount=2recvcount=39
0A203135302E373830302020202020203134330D0A203135302E383030302020202020203136350D
[2018-06-02 17:15:41 639] UART Recv: @2[
 150.7800      143
 150.8000      165
]

[2018-06-02 17:15:41 639] [Measure] analyzecount=2recvcount=41
0A203135302E383230302020202020203136310D0A203135302E383430302020202020203135340D
[2018-06-02 17:15:41 764] UART Recv: @2[
 150.8200      161
 150.8400      154
]

[2018-06-02 17:15:41 764] [Measure] analyzecount=2recvcount=43
0A203135302E383630302020202020203135300D0A203135302E383830302020202020203137300D0A203135302E393030302020202020203137390D
[2018-06-02 17:15:41 920] UART Recv: @2[
 150.8600      150
 150.8800      170
 150.9000      179
]

[2018-06-02 17:15:41 920] [Measure] analyzecount=3recvcount=46

[2018-06-02 17:15:41 967] CountDown Run[2,42]
0A203135302E393230302020202020203138360D0A203135302E393430302020202020203138350D0A203135302E393630302020202020203136300D
[2018-06-02 17:15:42 108] UART Recv: @2[
 150.9200      186
 150.9400      185
 150.9600      160
]

[2018-06-02 17:15:42 108] [Measure] analyzecount=3recvcount=49
0A203135302E393830302020202020203135370D0A203135312E303030302020202020203136370D
[2018-06-02 17:15:42 296] UART Recv: @2[
 150.9800      157
 151.0000      167
]

[2018-06-02 17:15:42 296] [Measure] analyzecount=2recvcount=51
0A203135312E303230302020202020203136350D0A203135312E303430302020202020203138340D
[2018-06-02 17:15:42 420] UART Recv: @2[
 151.0200      165
 151.0400      184
]

[2018-06-02 17:15:42 420] [Measure] analyzecount=2recvcount=53
0A203135312E303630302020202020203137320D0A203135312E303830302020202020203138330D
[2018-06-02 17:15:42 546] UART Recv: @2[
 151.0600      172
 151.0800      183
]

[2018-06-02 17:15:42 546] [Measure] analyzecount=2recvcount=55
0A203135312E313030302020202020203138300D0A203135312E313230302020202020203137360D0A203135312E313430302020
[2018-06-02 17:15:42 687] UART Recv: @2[
 151.1000      180
 151.1200      176
 151.1400  ]

[2018-06-02 17:15:42 687] [Measure] analyzecount=2recvcount=57
202020203135370D0A203135312E313630302020202020203135390D0A203135312E313830302020202020203139390D
[2018-06-02 17:15:42 827] UART Recv: @2[    157
 151.1600      159
 151.1800      199
]

[2018-06-02 17:15:42 827] [Measure] analyzecount=3recvcount=60

[2018-06-02 17:15:42 937] CountDown Run[3,42]
0A203135312E323030302020202020203138300D0A203135312E323230302020202020203138360D
[2018-06-02 17:15:42 999] UART Recv: @2[
 151.2000      180
 151.2200      186
]

[2018-06-02 17:15:42 999] [Measure] analyzecount=2recvcount=62
0A203135312E323430302020202020203139360D0A203135312E323630302020202020203230300D
[2018-06-02 17:15:43 140] UART Recv: @2[
 151.2400      196
 151.2600      200
]

[2018-06-02 17:15:43 140] [Measure] analyzecount=2recvcount=64
0A203135312E323830302020202020203138370D0A203135312E333030302020202020203138370D
[2018-06-02 17:15:43 265] UART Recv: @2[
 151.2800      187
 151.3000      187
]

[2018-06-02 17:15:43 265] [Measure] analyzecount=2recvcount=66
0A203135312E333230302020202020203137370D0A203135312E333430302020202020203138330D0A203135312E333630302020202020203138310D
[2018-06-02 17:15:43 405] UART Recv: @2[
 151.3200      177
 151.3400      183
 151.3600      181
]

[2018-06-02 17:15:43 405] [Measure] analyzecount=3recvcount=69
0A203135312E333830302020202020203231370D0A203135312E343030302020202020203138310D
[2018-06-02 17:15:43 583] UART Recv: @2[
 151.3800      217
 151.4000      181
]

[2018-06-02 17:15:43 583] [Measure] analyzecount=2recvcount=71
0A203135312E343230302020202020203230350D0A203135312E343430302020202020203138320D0A203135312E343630302020202020203231310D
[2018-06-02 17:15:43 718] UART Recv: @2[
 151.4200      205
 151.4400      182
 151.4600      211
]

[2018-06-02 17:15:43 718] [Measure] analyzecount=3recvcount=74
0A203135312E343830302020202020203230300D0A203135312E353030302020202020203231310D
[2018-06-02 17:15:43 905] UART Recv: @2[
 151.4800      200
 151.5000      211
]

[2018-06-02 17:15:43 905] [Measure] analyzecount=2recvcount=76

[2018-06-02 17:15:43 953] CountDown Run[4,42]
0A203135312E353230302020202020203230360D0A203135312E353430302020202020203138390D
[2018-06-02 17:15:44 031] UART Recv: @2[
 151.5200      206
 151.5400      189
]

[2018-06-02 17:15:44 031] [Measure] analyzecount=2recvcount=78
0A203135312E353630302020202020203234360D0A203135312E353830302020202020203232380D
[2018-06-02 17:15:44 172] UART Recv: @2[
 151.5600      246
 151.5800      228
]

[2018-06-02 17:15:44 172] [Measure] analyzecount=2recvcount=80
0A203135312E363030302020202020203230360D0A203135312E363230302020202020203138310D0A203135312E363430302020202020203230380D
[2018-06-02 17:15:44 312] UART Recv: @2[
 151.6000      206
 151.6200      181
 151.6400      208
]

[2018-06-02 17:15:44 312] [Measure] analyzecount=3recvcount=83
0A203135312E363630302020202020203233330D0A203135312E363830302020202020203232380D
[2018-06-02 17:15:44 493] UART Recv: @2[
 151.6600      233
 151.6800      228
]

[2018-06-02 17:15:44 493] [Measure] analyzecount=2recvcount=85
0A203135312E373030302020202020203232340D0A203135312E373230302020202020203232370D
[2018-06-02 17:15:44 624] UART Recv: @2[
 151.7000      224
 151.7200      227
]

[2018-06-02 17:15:44 624] [Measure] analyzecount=2recvcount=87
0A203135312E373430302020202020203231350D0A203135312E373630302020202020203230380D
[2018-06-02 17:15:44 749] UART Recv: @2[
 151.7400      215
 151.7600      208
]

[2018-06-02 17:15:44 749] [Measure] analyzecount=2recvcount=89
0A203135312E373830302020202020203232370D0A203135312E383030302020202020203231360D0A203135312E383230302020202020203233300D
[2018-06-02 17:15:44 890] UART Recv: @2[
 151.7800      227
 151.8000      216
 151.8200      230
]

[2018-06-02 17:15:44 890] [Measure] analyzecount=3recvcount=92

[2018-06-02 17:15:44 937] CountDown Run[5,42]
0A203135312E383430302020202020203235340D0A203135312E383630302020202020203234370D0A203135312E3838303020
[2018-06-02 17:15:45 078] UART Recv: @2[
 151.8400      254
 151.8600      247
 151.8800 ]

[2018-06-02 17:15:45 078] [Measure] analyzecount=2recvcount=94
20202020203233360D0A203135312E393030302020202020203231370D0A203135
[2018-06-02 17:15:45 219] UART Recv: @2[     236
 151.9000      217
 15]

[2018-06-02 17:15:45 219] [Measure] analyzecount=2recvcount=96
312E393230302020202020203235370D0A203135312E393430302020202020203235390D
[2018-06-02 17:15:45 344] UART Recv: @2[1.9200      257
 151.9400      259
]

[2018-06-02 17:15:45 344] [Measure] analyzecount=2recvcount=98
0A203135312E393630302020202020203234390D0A203135312E393830302020202020203233370D
[2018-06-02 17:15:45 469] UART Recv: @2[
 151.9600      249
 151.9800      237
]

[2018-06-02 17:15:45 469] [Measure] analyzecount=2recvcount=100
0A203135322E303030302020202020203233310D0A203135322E303230302020202020203234300D0A203135322E303430302020202020203232340D
[2018-06-02 17:15:45 608] UART Recv: @2[
 152.0000      231
 152.0200      240
 152.0400      224
]

[2018-06-02 17:15:45 608] [Measure] analyzecount=3recvcount=103
0A203135322E303630302020202020203235360D0A203135322E303830302020202020203234390D0A203135322E313030302020202020203236340D
[2018-06-02 17:15:45 796] UART Recv: @2[
 152.0600      256
 152.0800      249
 152.1000      264
]

[2018-06-02 17:15:45 796] [Measure] analyzecount=3recvcount=106

[2018-06-02 17:15:45 937] CountDown Run[6,42]
0A203135322E313230302020202020203235320D0A203135322E313430302020202020203237380D
[2018-06-02 17:15:45 984] UART Recv: @2[
 152.1200      252
 152.1400      278
]

[2018-06-02 17:15:45 984] [Measure] analyzecount=2recvcount=108
0A203135322E313630302020202020203237370D0A203135322E313830302020202020203238360D
[2018-06-02 17:15:46 110] UART Recv: @2[
 152.1600      277
 152.1800      286
]

[2018-06-02 17:15:46 110] [Measure] analyzecount=2recvcount=110
0A203135322E323030302020202020203235350D0A203135322E323230302020202020203237320D
[2018-06-02 17:15:46 235] UART Recv: @2[
 152.2000      255
 152.2200      272
]

[2018-06-02 17:15:46 235] [Measure] analyzecount=2recvcount=112
0A203135322E323430302020202020203330340D0A203135322E323630302020202020203235350D0A203135322E
[2018-06-02 17:15:46 376] UART Recv: @2[
 152.2400      304
 152.2600      255
 152.]

[2018-06-02 17:15:46 376] [Measure] analyzecount=2recvcount=114
323830302020202020203237340D0A203135322E333030302020202020203238350D0A203135322E333230302020202020203238390D
[2018-06-02 17:15:46 518] UART Recv: @2[2800      274
 152.3000      285
 152.3200      289
]

[2018-06-02 17:15:46 518] [Measure] analyzecount=3recvcount=117
0A203135322E333430302020202020203238330D0A203135322E333630302020202020203234380D0A203135322E333830302020202020203237370D
[2018-06-02 17:15:46 706] UART Recv: @2[
 152.3400      283
 152.3600      248
 152.3800      277
]

[2018-06-02 17:15:46 706] [Measure] analyzecount=3recvcount=120
0A203135322E343030302020202020203330370D0A203135322E343230302020202020203330350D
[2018-06-02 17:15:46 893] UART Recv: @2[
 152.4000      307
 152.4200      305
]

[2018-06-02 17:15:46 893] [Measure] analyzecount=2recvcount=122

[2018-06-02 17:15:46 956] CountDown Run[7,42]
0A203135322E343430302020202020203237320D0A203135322E343630302020202020203239370D
[2018-06-02 17:15:47 018] UART Recv: @2[
 152.4400      272
 152.4600      297
]

[2018-06-02 17:15:47 018] [Measure] analyzecount=2recvcount=124
0A203135322E343830302020202020203330340D0A203135322E353030302020202020203238370D0A203135322E353230302020202020203331380D
[2018-06-02 17:15:47 159] UART Recv: @2[
 152.4800      304
 152.5000      287
 152.5200      318
]

[2018-06-02 17:15:47 159] [Measure] analyzecount=3recvcount=127
0A203135322E353430302020202020203331320D0A203135322E353630302020202020203238340D0A203135322E3538303020202020202033
[2018-06-02 17:15:47 346] UART Recv: @2[
 152.5400      312
 152.5600      284
 152.5800      3]

[2018-06-02 17:15:47 346] [Measure] analyzecount=2recvcount=129
32390D0A203135322E363030302020202020203332370D0A203135322E363230302020202020203332300D
[2018-06-02 17:15:47 486] UART Recv: @2[29
 152.6000      327
 152.6200      320
]

[2018-06-02 17:15:47 486] [Measure] analyzecount=3recvcount=132
0A203135322E363430302020202020203333390D0A203135322E363630302020202020203332330D
[2018-06-02 17:15:47 658] UART Recv: @2[
 152.6400      339
 152.6600      323
]

[2018-06-02 17:15:47 658] [Measure] analyzecount=2recvcount=134
0A203135322E363830302020202020203336340D0A203135322E373030302020202020203333350D
[2018-06-02 17:15:47 799] UART Recv: @2[
 152.6800      364
 152.7000      335
]

[2018-06-02 17:15:47 799] [Measure] analyzecount=2recvcount=136

0A203135322E373230302020202020203331320D0A203135322E373430302020202020203336310D0A203135322E373630302020202020203333380D
[2018-06-02 17:15:47 939] CountDown Run[8,42]
[2018-06-02 17:15:47 940] UART Recv: @2[
 152.7200      312
 152.7400      361
 152.7600      338
]

[2018-06-02 17:15:47 940] [Measure] analyzecount=3recvcount=139
0A203135322E373830302020202020203332350D0A203135322E383030302020202020203331340D0A203135322E383230302020202020203332360D
[2018-06-02 17:15:48 128] UART Recv: @2[
 152.7800      325
 152.8000      314
 152.8200      326
]

[2018-06-02 17:15:48 128] [Measure] analyzecount=3recvcount=142
0A203135322E383430302020202020203332330D0A203135322E383630302020202020203334310D
[2018-06-02 17:15:48 309] UART Recv: @2[
 152.8400      323
 152.8600      341
]

[2018-06-02 17:15:48 309] [Measure] analyzecount=2recvcount=144
0A203135322E383830302020202020203336350D0A203135322E393030302020202020203333300D
[2018-06-02 17:15:48 443] UART Recv: @2[
 152.8800      365
 152.9000      330
]

[2018-06-02 17:15:48 443] [Measure] analyzecount=2recvcount=146
0A203135322E393230302020202020203333300D0A203135322E393430302020202020203334380D0A203135322E3936303020202020
[2018-06-02 17:15:48 574] UART Recv: @2[
 152.9200      330
 152.9400      348
 152.9600    ]

[2018-06-02 17:15:48 574] [Measure] analyzecount=2recvcount=148
20203336360D0A203135322E393830302020202020203336390D0A203135332E3030
[2018-06-02 17:15:48 715] UART Recv: @2[  366
 152.9800      369
 153.00]

[2018-06-02 17:15:48 715] [Measure] analyzecount=2recvcount=150
30302020202020203337300D0A203135332E303230302020202020203338330D0A
[2018-06-02 17:15:48 840] UART Recv: @2[00      370
 153.0200      383
]

[2018-06-02 17:15:48 840] [Measure] analyzecount=2recvcount=152

[2018-06-02 17:15:48 934] CountDown Run[9,42]
203135332E303430302020202020203334370D0A203135332E303630302020202020203333380D0A203135332E303830302020202020203338300D
[2018-06-02 17:15:48 981] UART Recv: @2[ 153.0400      347
 153.0600      338
 153.0800      380
]

[2018-06-02 17:15:48 981] [Measure] analyzecount=3recvcount=155
0A203135332E313030302020202020203336330D0A203135332E313230302020202020203333390D0A203135332E313430302020202020203336340D
[2018-06-02 17:15:49 168] UART Recv: @2[
 153.1000      363
 153.1200      339
 153.1400      364
]

[2018-06-02 17:15:49 168] [Measure] analyzecount=3recvcount=158
0A203135332E313630302020202020203334330D0A203135332E313830302020202020203337380D0A203135332E323030302020202020203335310D
[2018-06-02 17:15:49 356] UART Recv: @2[
 153.1600      343
 153.1800      378
 153.2000      351
]

[2018-06-02 17:15:49 356] [Measure] analyzecount=3recvcount=161
0A203135332E323230302020202020203339330D0A203135332E323430302020202020203334360D
[2018-06-02 17:15:49 543] UART Recv: @2[
 153.2200      393
 153.2400      346
]

[2018-06-02 17:15:49 543] [Measure] analyzecount=2recvcount=163
0A203135332E323630302020202020203337380D0A203135332E323830302020202020203431310D
[2018-06-02 17:15:49 668] UART Recv: @2[
 153.2600      378
 153.2800      411
]

[2018-06-02 17:15:49 668] [Measure] analyzecount=2recvcount=165
0A203135332E333030302020202020203337370D0A203135332E333230302020202020203337300D0A203135332E333430302020
[2018-06-02 17:15:49 808] UART Recv: @2[
 153.3000      377
 153.3200      370
 153.3400  ]

[2018-06-02 17:15:49 808] [Measure] analyzecount=2recvcount=167

[2018-06-02 17:15:49 933] CountDown Run[10,42]
202020203339390D0A203135332E333630302020202020203431340D0A203135332E333830302020202020203431310D
[2018-06-02 17:15:49 949] UART Recv: @2[    399
 153.3600      414
 153.3800      411
]

[2018-06-02 17:15:49 949] [Measure] analyzecount=3recvcount=170
0A203135332E343030302020202020203339370D0A203135332E343230302020202020203336300D
[2018-06-02 17:15:50 121] UART Recv: @2[
 153.4000      397
 153.4200      360
]

[2018-06-02 17:15:50 121] [Measure] analyzecount=2recvcount=172
0A203135332E343430302020202020203436310D0A203135332E343630302020202020203432370D
[2018-06-02 17:15:50 262] UART Recv: @2[
 153.4400      461
 153.4600      427
]

[2018-06-02 17:15:50 262] [Measure] analyzecount=2recvcount=174
0A203135332E343830302020202020203433390D0A203135332E353030302020202020203337360D
[2018-06-02 17:15:50 387] UART Recv: @2[
 153.4800      439
 153.5000      376
]

[2018-06-02 17:15:50 387] [Measure] analyzecount=2recvcount=176
0A203135332E353230302020202020203430340D0A203135332E353430302020202020203432370D0A203135332E353630302020202020203430360D
[2018-06-02 17:15:50 527] UART Recv: @2[
 153.5200      404
 153.5400      427
 153.5600      406
]

[2018-06-02 17:15:50 527] [Measure] analyzecount=3recvcount=179
0A203135332E353830302020202020203430340D0A203135332E363030302020202020203339380D0A203135332E363230302020202020203432370D
[2018-06-02 17:15:50 715] UART Recv: @2[
 153.5800      404
 153.6000      398
 153.6200      427
]

[2018-06-02 17:15:50 715] [Measure] analyzecount=3recvcount=182
0A203135332E363430302020202020203431360D0A203135332E363630302020202020203432310D
[2018-06-02 17:15:50 902] UART Recv: @2[
 153.6400      416
 153.6600      421
]

[2018-06-02 17:15:50 902] [Measure] analyzecount=2recvcount=184

[2018-06-02 17:15:50 933] CountDown Run[11,42]
0A203135332E363830302020202020203434370D0A203135332E373030302020202020203430320D
[2018-06-02 17:15:51 028] UART Recv: @2[
 153.6800      447
 153.7000      402
]

[2018-06-02 17:15:51 028] [Measure] analyzecount=2recvcount=186
0A203135332E373230302020202020203433360D0A203135332E373430302020202020203431310D
[2018-06-02 17:15:51 153] UART Recv: @2[
 153.7200      436
 153.7400      411
]

[2018-06-02 17:15:51 153] [Measure] analyzecount=2recvcount=188
0A203135332E373630302020202020203432380D0A203135332E373830302020202020203433310D
[2018-06-02 17:15:51 294] UART Recv: @2[
 153.7600      428
 153.7800      431
]

[2018-06-02 17:15:51 294] [Measure] analyzecount=2recvcount=190
0A203135332E383030302020202020203433340D0A203135332E383230302020202020203431370D0A203135332E383430302020202020203532370D
[2018-06-02 17:15:51 434] UART Recv: @2[
 153.8000      434
 153.8200      417
 153.8400      527
]

[2018-06-02 17:15:51 434] [Measure] analyzecount=3recvcount=193
0A203135332E383630302020202020203436370D0A203135332E383830302020202020203433390D0A203135332E393030302020202020203437350D
[2018-06-02 17:15:51 625] UART Recv: @2[
 153.8600      467
 153.8800      439
 153.9000      475
]

[2018-06-02 17:15:51 625] [Measure] analyzecount=3recvcount=196
0A203135332E393230302020202020203437340D0A203135332E393430302020202020203432370D
[2018-06-02 17:15:51 812] UART Recv: @2[
 153.9200      474
 153.9400      427
]

[2018-06-02 17:15:51 812] [Measure] analyzecount=2recvcount=198

[2018-06-02 17:15:51 937] CountDown Run[12,42]
0A203135332E393630302020202020203434380D0A203135332E393830302020202020203437370D0A203135342E303030302020202020203437340D
[2018-06-02 17:15:51 953] UART Recv: @2[
 153.9600      448
 153.9800      477
 154.0000      474
]

[2018-06-02 17:15:51 953] [Measure] analyzecount=3recvcount=201
0A203135342E303230302020202020203439300D0A203135342E303430302020202020203437320D0A203135342E3036303020202020
[2018-06-02 17:15:52 140] UART Recv: @2[
 154.0200      490
 154.0400      472
 154.0600    ]

[2018-06-02 17:15:52 140] [Measure] analyzecount=2recvcount=203
20203432310D0A203135342E303830302020202020203437310D0A203135342E313030302020202020203436370D
[2018-06-02 17:15:52 281] UART Recv: @2[  421
 154.0800      471
 154.1000      467
]

[2018-06-02 17:15:52 281] [Measure] analyzecount=3recvcount=206
0A203135342E313230302020202020203435370D0A203135342E313430302020202020203434320D
[2018-06-02 17:15:52 453] UART Recv: @2[
 154.1200      457
 154.1400      442
]

[2018-06-02 17:15:52 453] [Measure] analyzecount=2recvcount=208
0A203135342E313630302020202020203435390D0A203135342E313830302020202020203437310D
[2018-06-02 17:15:52 589] UART Recv: @2[
 154.1600      459
 154.1800      471
]

[2018-06-02 17:15:52 589] [Measure] analyzecount=2recvcount=210
0A203135342E323030302020202020203436300D0A203135342E323230302020202020203436360D
[2018-06-02 17:15:52 717] UART Recv: @2[
 154.2000      460
 154.2200      466
]

[2018-06-02 17:15:52 717] [Measure] analyzecount=2recvcount=212
0A203135342E323430302020202020203433340D0A203135342E323630302020202020203436350D0A203135342E323830302020202020203437300D
[2018-06-02 17:15:52 858] UART Recv: @2[
 154.2400      434
 154.2600      465
 154.2800      470
]

[2018-06-02 17:15:52 858] [Measure] analyzecount=3recvcount=215

[2018-06-02 17:15:52 936] CountDown Run[13,42]
0A203135342E333030302020202020203435320D0A203135342E333230302020202020203439370D0A203135342E333430302020202020203435340D
[2018-06-02 17:15:53 045] UART Recv: @2[
 154.3000      452
 154.3200      497
 154.3400      454
]

[2018-06-02 17:15:53 045] [Measure] analyzecount=3recvcount=218
0A203135342E333630302020202020203531320D0A203135342E333830302020202020203439360D0A203135342E34303030202020202020353036
[2018-06-02 17:15:53 242] UART Recv: @2[
 154.3600      512
 154.3800      496
 154.4000      506]

[2018-06-02 17:15:53 242] [Measure] analyzecount=2recvcount=220
0D0A203135342E343230302020202020203436380D0A203135342E343430302020202020203433370D
[2018-06-02 17:15:53 383] UART Recv: @2[
 154.4200      468
 154.4400      437
]

[2018-06-02 17:15:53 383] [Measure] analyzecount=3recvcount=223
0A203135342E343630302020202020203436310D0A203135342E343830302020202020203432340D
[2018-06-02 17:15:53 547] UART Recv: @2[
 154.4600      461
 154.4800      424
]

[2018-06-02 17:15:53 547] [Measure] analyzecount=2recvcount=225
0A203135342E353030302020202020203531330D0A203135342E353230302020202020203434370D
[2018-06-02 17:15:53 688] UART Recv: @2[
 154.5000      513
 154.5200      447
]

[2018-06-02 17:15:53 688] [Measure] analyzecount=2recvcount=227
0A203135342E353430302020202020203438330D0A203135342E353630302020202020203438390D0A203135342E353830302020202020203437350D
[2018-06-02 17:15:53 828] UART Recv: @2[
 154.5400      483
 154.5600      489
 154.5800      475
]

[2018-06-02 17:15:53 828] [Measure] analyzecount=3recvcount=230

[2018-06-02 17:15:53 938] CountDown Run[14,42]
0A203135342E363030302020202020203439330D0A203135342E363230302020202020203435310D
[2018-06-02 17:15:54 016] UART Recv: @2[
 154.6000      493
 154.6200      451
]

[2018-06-02 17:15:54 016] [Measure] analyzecount=2recvcount=232
0A203135342E363430302020202020203437380D0A203135342E363630302020202020203439360D
[2018-06-02 17:15:54 141] UART Recv: @2[
 154.6400      478
 154.6600      496
]

[2018-06-02 17:15:54 141] [Measure] analyzecount=2recvcount=234
0A203135342E363830302020202020203437320D0A203135342E373030302020202020203439330D
[2018-06-02 17:15:54 266] UART Recv: @2[
 154.6800      472
 154.7000      493
]

[2018-06-02 17:15:54 266] [Measure] analyzecount=2recvcount=236
0A203135342E373230302020202020203435330D0A203135342E373430302020202020203438310D0A203135342E373630302020202020203436370D
[2018-06-02 17:15:54 406] UART Recv: @2[
 154.7200      453
 154.7400      481
 154.7600      467
]

[2018-06-02 17:15:54 406] [Measure] analyzecount=3recvcount=239
0A203135342E373830302020202020203437390D0A203135342E383030302020202020203436310D0A203135342E38323030
[2018-06-02 17:15:54 595] UART Recv: @2[
 154.7800      479
 154.8000      461
 154.8200]

[2018-06-02 17:15:54 595] [Measure] analyzecount=2recvcount=241
2020202020203435380D0A203135342E383430302020202020203439320D0A203135
[2018-06-02 17:15:54 735] UART Recv: @2[      458
 154.8400      492
 15]

[2018-06-02 17:15:54 735] [Measure] analyzecount=2recvcount=243
342E383630302020202020203434310D0A203135342E383830302020202020203437300D
[2018-06-02 17:15:54 860] UART Recv: @2[4.8600      441
 154.8800      470
]

[2018-06-02 17:15:54 860] [Measure] analyzecount=2recvcount=245

[2018-06-02 17:15:54 938] CountDown Run[15,42]
0A203135342E393030302020202020203530380D0A203135342E393230302020202020203436320D
[2018-06-02 17:15:54 985] UART Recv: @2[
 154.9000      508
 154.9200      462
]

[2018-06-02 17:15:54 985] [Measure] analyzecount=2recvcount=247
0A203135342E393430302020202020203531300D0A203135342E393630302020202020203530390D0A203135342E393830302020202020203434390D
[2018-06-02 17:15:55 126] UART Recv: @2[
 154.9400      510
 154.9600      509
 154.9800      449
]

[2018-06-02 17:15:55 126] [Measure] analyzecount=3recvcount=250
0A203135352E303030302020202020203439380D0A433D
[2018-06-02 17:15:55 314] UART Recv: @2[
 155.0000      498
C=]

[2018-06-02 17:15:55 314] [Measure] analyzecount=1recvcount=251

[2018-06-02 17:15:55 314] [Measure] parse txt=D:\work\xrd\04.CodeLibrary\Trunk\XRD_Tool\XRD_Tool\bin\Debug\SDD_sample_name_01234_Psi-0_20180602-171537.txt

[2018-06-02 17:15:55 314] [Measure] Chart Fit Update,series=0 file=D:\work\xrd\04.CodeLibrary\Trunk\XRD_Tool\XRD_Tool\bin\Debug\SDD_sample_name_01234_Psi-0_20180602-171537.txt

[2018-06-02 17:15:56 102] Python Cmd: [python D:\work\xrd\04.CodeLibrary\Trunk\XRD_Tool\XRD_Tool\bin\Debug\CurveFittingPearson_20180526.py 1 D:\work\xrd\04.CodeLibrary\Trunk\XRD_Tool\XRD_Tool\bin\Debug\SDD_sample_name_01234_Psi-0_20180602-171537.txt 0 > D:\work\xrd\04.CodeLibrary\Trunk\XRD_Tool\XRD_Tool\bin\Debug\CalcResult.py]

[2018-06-02 17:15:56 102] Python Result: [154.639,478.906,5.50058,1.07802,5.50058]
53544131350D
[2018-06-02 17:16:05 702] UART Send: [STA15
]

[2018-06-02 17:16:05 702] CountDown Run[16,42]

[2018-06-02 17:16:05 702] CountDown Run[17,42]
53544131350D
[2018-06-02 17:16:05 749] UART Recv: @2[STA15
]

[2018-06-02 17:16:05 937] CountDown Run[18,42]

[2018-06-02 17:16:06 937] CountDown Run[19,42]

[2018-06-02 17:16:07 940] CountDown Run[20,42]

[2018-06-02 17:16:08 940] CountDown Run[21,42]

[2018-06-02 17:16:09 940] CountDown Run[22,42]

[2018-06-02 17:16:10 930] CountDown Run[23,42]
0A433D202031352E303030300D0A433D
[2018-06-02 17:16:11 539] UART Recv: @2[
C=  15.0000
C=]
53414E3135300D
[2018-06-02 17:16:15 497] UART Send: [SAN150
]

[2018-06-02 17:16:15 497] CountDown Run[24,42]
53414E3135300D
[2018-06-02 17:16:15 575] UART Recv: @2[SAN150
]

[2018-06-02 17:16:15 934] CountDown Run[25,42]
0A433D
[2018-06-02 17:16:16 828] UART Recv: @2[
C=]
534B4D32352033300D
[2018-06-02 17:16:20 234] UART Send: [SKM25 30
]

[2018-06-02 17:16:20 234] CountDown Run[26,42]
534B4D32352033300D
[2018-06-02 17:16:20 297] UART Recv: @2[SKM25 30
]

[2018-06-02 17:16:20 932] CountDown Run[27,42]

[2018-06-02 17:16:21 943] CountDown Run[28,42]

[2018-06-02 17:16:22 936] CountDown Run[29,42]
0A433D
[2018-06-02 17:16:23 521] UART Recv: @2[
C=]
524B4D0D
[2018-06-02 17:16:27 401] UART Send: [RKM
]

[2018-06-02 17:16:27 401] CountDown Run[30,42]
524B4D0D32342E39350D200D33302E30320D0A433D
[2018-06-02 17:16:27 485] UART Recv: @2[RKM
24.95

30.02
C=]

[2018-06-02 17:16:27 485] [Measure] totalcount=251
535343350D
[2018-06-02 17:16:28 469] UART Send: [SSC5
]

[2018-06-02 17:16:28 469] CountDown start[0,42]

[2018-06-02 17:16:28 516] CountDown Run[0,42]
535343350D0A203135302E303030302020202020203130390D0A203135302E303230302020202020203132360D
[2018-06-02 17:16:28 610] UART Recv: @2[SSC5
 150.0000      109
 150.0200      126
]

[2018-06-02 17:16:28 610] [Measure] analyzecount=2recvcount=2
0A203135302E303430302020202020203134300D0A203135302E303630302020202020203130380D0A203135302E303830302020202020203133330D
[2018-06-02 17:16:28 798] UART Recv: @2[
 150.0400      140
 150.0600      108
 150.0800      133
]

[2018-06-02 17:16:28 798] [Measure] analyzecount=3recvcount=5

[2018-06-02 17:16:28 938] CountDown Run[1,42]
0A203135302E313030302020202020203132340D0A203135302E313230302020202020203132330D
[2018-06-02 17:16:28 985] UART Recv: @2[
 150.1000      124
 150.1200      123
]

[2018-06-02 17:16:28 985] [Measure] analyzecount=2recvcount=7
0A203135302E313430302020202020203132330D0A203135302E313630302020202020203132350D
[2018-06-02 17:16:29 110] UART Recv: @2[
 150.1400      123
 150.1600      125
]

[2018-06-02 17:16:29 110] [Measure] analyzecount=2recvcount=9
0A203135302E313830302020202020203131300D0A203135302E323030302020202020203132370D
[2018-06-02 17:16:29 235] UART Recv: @2[
 150.1800      110
 150.2000      127
]

[2018-06-02 17:16:29 235] [Measure] analyzecount=2recvcount=11
0A203135302E323230302020202020203131380D0A203135302E323430302020202020203133340D0A203135302E3236303020202020
[2018-06-02 17:16:29 376] UART Recv: @2[
 150.2200      118
 150.2400      134
 150.2600    ]

[2018-06-02 17:16:29 376] [Measure] analyzecount=2recvcount=13
20203132300D0A203135302E323830302020202020203134310D0A203135302E333030302020202020203133340D
[2018-06-02 17:16:29 519] UART Recv: @2[  120
 150.2800      141
 150.3000      134
]

[2018-06-02 17:16:29 519] [Measure] analyzecount=3recvcount=16
0A203135302E333230302020202020203132370D0A203135302E333430302020202020203131350D
[2018-06-02 17:16:29 691] UART Recv: @2[
 150.3200      127
 150.3400      115
]

[2018-06-02 17:16:29 691] [Measure] analyzecount=2recvcount=18
0A203135302E333630302020202020203132320D0A203135302E333830302020202020203134360D
[2018-06-02 17:16:29 831] UART Recv: @2[
 150.3600      122
 150.3800      146
]

[2018-06-02 17:16:29 831] [Measure] analyzecount=2recvcount=20

[2018-06-02 17:16:29 941] CountDown Run[2,42]
0A203135302E343030302020202020203132360D0A203135302E343230302020202020203135340D
[2018-06-02 17:16:29 956] UART Recv: @2[
 150.4000      126
[...]
[2018-06-02 21:58:44 188] UART Recv: @1[
ZTA-003.3647

ZTB-001.1079

ZTX-050.4035

ZTY-050.8125

ZTZ-005.0000

STP000.0200

INT001.0000

SPE0048

C=]
534450320D
[2018-06-02 21:58:44 189] UART Send: [SDP2
]
534450320D
[2018-06-02 21:58:44 315] UART Recv: @1[SDP2
]
0A433D
[2018-06-02 21:58:44 458] UART Recv: @1[
C=]

[2018-06-02 21:58:44 791] [DeviceInit] Init Skip

[2018-06-02 21:58:45 775] [Parent] Menu Measure

[2018-06-02 21:58:45 880] [Measure] check 5 Axis=Unchecked
[2018-06-02 21:58:51 312]Log Start******************************************************

[2018-06-02 21:58:52 610] [UserLogin] login succeed!user=administrator,pwd=123456

[2018-06-02 21:58:52 720] [DeviceInit] Init Start
2F0D
[2018-06-02 21:58:52 722] UART Send: [/
]
0D0A433D
[2018-06-02 21:58:52 856] UART Recv: @1[
C=]
5246460D
[2018-06-02 21:58:52 861] UART Send: [RFF
]
5246460D0A2B2B3130310D0A433D
[2018-06-02 21:58:52 988] UART Recv: @1[RFF
++101
C=]
524B4D0D
[2018-06-02 21:58:52 989] UART Send: [RKM
]
524B4D0D32342E39360D200D33302E30320D0A433D
[2018-06-02 21:58:53 116] UART Recv: @1[RKM
24.96

30.02
C=]

[2018-06-02 21:58:53 724] [DeviceInit] warmup check=False

[2018-06-02 21:58:53 724] [DeviceInit] warmup skip, GetDeviceZeroPoint
5041520D
[2018-06-02 21:58:53 725] UART Send: [PAR
]
5041520D0A4C574C33300D0A55504C37350D0A535045302E30320D0A535450302E30320D0A494E54302E30350D0A4D584E31300D0A4D5854310D0A4D5853302E3030350D0A4D4F44330D0A574156312E35343138340D0A54535A2034352E333530300D0A54445A2031392E333135300D0A0A433D
[2018-06-02 21:58:53 850] UART Recv: @1[PAR
LWL30
UPL75
SPE0.02
STP0.02
INT0.05
MXN10
MXT1
MXS0.005
MOD3
WAV1.54184
TSZ 45.3500
TDZ 19.3150

C=]
5041460D
[2018-06-02 21:58:53 851] UART Send: [PAF
]
5041460D
[2018-06-02 21:58:53 977] UART Recv: @1[PAF
]
0A5A54412D3030332E333634370D0A0A5A54422D3030312E313037390D0A0A5A54582D3035302E343033350D0A0A5A54592D3035302E383132350D0A0A5A545A2D3030352E303030300D0A0A5354503030302E303230300D0A0A494E543030312E303030300D0A0A535045303034380D0A0A433D
[2018-06-02 21:58:54 264] UART Recv: @1[
ZTA-003.3647

ZTB-001.1079

ZTX-050.4035

ZTY-050.8125

ZTZ-005.0000

STP000.0200

INT001.0000

SPE0048

C=]
534450320D
[2018-06-02 21:58:54 267] UART Send: [SDP2
]
534450320D
[2018-06-02 21:58:54 391] UART Recv: @1[SDP2
]
0A433D
[2018-06-02 21:58:54 535] UART Recv: @1[
C=]
2D7265736574
[2018-06-02 21:58:54 555] TCP Send: [-reset]

[2018-06-02 21:58:54 608] Exception[System.ArgumentNullException: Value cannot be null.
Parameter name: value
   at System.BitConverter.ToInt32(Byte[] value, Int32 startIndex)
   at XRD_Tool.MeasureApi.RecvTCPCmdResultCheck(Byte[] cmd, Int32& code) in d:\PCTool\XRD_Tool\XRD_Tool\MeasureApi.cs:line 1130]

[2018-06-02 21:59:12 861] [DeviceInit] warmup check=False

[2018-06-02 21:59:12 861] [DeviceInit] warmup skip, GetDeviceZeroPoint
5041520D
[2018-06-02 21:59:12 862] UART Send: [PAR
]
5041520D0A4C574C33300D0A55504C37350D0A535045302E30320D0A535450302E30320D0A494E54302E30350D0A4D584E31300D0A4D5854310D0A4D5853302E3030350D0A4D4F44330D0A574156312E35343138340D0A54535A2034352E333530300D0A54445A2031392E333135300D0A0A433D
[2018-06-02 21:59:12 993] UART Recv: @1[PAR
LWL30
UPL75
SPE0.02
STP0.02
INT0.05
MXN10
MXT1
MXS0.005
MOD3
WAV1.54184
TSZ 45.3500
TDZ 19.3150

C=]
5041460D
[2018-06-02 21:59:12 993] UART Send: [PAF
]
5041460D
[2018-06-02 21:59:13 119] UART Recv: @1[PAF
]
0A5A54412D3030332E333634370D0A0A5A54422D3030312E313037390D0A0A5A54582D3035302E343033350D0A0A5A54592D3035302E383132350D0A0A5A545A2D3030352E303030300D0A0A5354503030302E303230300D0A0A494E543030312E303030300D0A0A535045303034380D0A0A433D
[2018-06-02 21:59:13 407] UART Recv: @1[
ZTA-003.3647

ZTB-001.1079

ZTX-050.4035

ZTY-050.8125

ZTZ-005.0000

STP000.0200

INT001.0000

SPE0048

C=]
534450320D
[2018-06-02 21:59:13 407] UART Send: [SDP2
]
534450320D
[2018-06-02 21:59:13 534] UART Recv: @1[SDP2
]
0A433D
[2018-06-02 21:59:13 677] UART Recv: @1[
C=]
[2018-06-02 21:59:15 933]Log Start******************************************************

[2018-06-02 21:59:16 922] [UserLogin] login succeed!user=administrator,pwd=123456

[2018-06-02 21:59:17 052] [DeviceInit] Init Start
2F0D
[2018-06-02 21:59:17 054] UART Send: [/
]
0D0A433D
[2018-06-02 21:59:17 193] UART Recv: @1[
C=]
5246460D
[2018-06-02 21:59:17 196] UART Send: [RFF
]
5246460D0A2B2B3130310D0A433D
[2018-06-02 21:59:17 322] UART Recv: @1[RFF
++101
C=]
524B4D0D
[2018-06-02 21:59:17 323] UART Send: [RKM
]
524B4D0D32342E39360D200D33302E30320D0A433D
[2018-06-02 21:59:17 450] UART Recv: @1[RKM
24.96

30.02
C=]

[2018-06-02 21:59:18 133] [DeviceInit] warmup check=False

[2018-06-02 21:59:18 133] [DeviceInit] warmup skip, GetDeviceZeroPoint
5041520D
[2018-06-02 21:59:18 134] UART Send: [PAR
]
5041520D0A4C574C33300D0A55504C37350D0A535045302E30320D0A535450302E30320D0A494E54302E30350D0A4D584E31300D0A4D5854310D0A4D5853302E3030350D0A4D4F44330D0A574156312E35343138340D0A54535A2034352E333530300D0A54445A2031392E333135300D0A0A433D
[2018-06-02 21:59:18 264] UART Recv: @1[PAR
LWL30
UPL75
SPE0.02
STP0.02
INT0.05
MXN10
MXT1
MXS0.005
MOD3
WAV1.54184
TSZ 45.3500
TDZ 19.3150

C=]
5041460D
[2018-06-02 21:59:18 266] UART Send: [PAF
]
5041460D
[2018-06-02 21:59:18 391] UART Recv: @1[PAF
]
0A5A54412D3030332E333634370D0A0A5A54422D3030312E313037390D0A0A5A54582D3035302E343033350D0A0A5A54592D3035302E383132350D0A0A5A545A2D3030352E303030300D0A0A5354503030302E303230300D0A0A494E543030312E303030300D0A0A535045303034380D0A0A433D
[2018-06-02 21:59:18 678] UART Recv: @1[
ZTA-003.3647

ZTB-001.1079

ZTX-050.4035

ZTY-050.8125

ZTZ-005.0000

STP000.0200

INT001.0000

SPE0048

C=]
534450320D
[2018-06-02 21:59:18 679] UART Send: [SDP2
]
534450320D
[2018-06-02 21:59:18 805] UART Recv: @1[SDP2
]
0A433D
[2018-06-02 21:59:18 949] UART Recv: @1[
C=]
2D7265736574
[2018-06-02 21:59:18 968] TCP Send: [-reset]

[2018-06-02 21:59:19 012] Exception[System.ArgumentNullException: Value cannot be null.
Parameter name: value
   at System.BitConverter.ToInt32(Byte[] value, Int32 startIndex)
   at XRD_Tool.MeasureApi.RecvTCPCmdResultCheck(Byte[] cmd, Int32& code) in d:\PCTool\XRD_Tool\XRD_Tool\MeasureApi.cs:line 1130]

[2018-06-02 21:59:19 229] [DeviceInit] warmup check=False

[2018-06-02 21:59:19 229] [DeviceInit] warmup skip, GetDeviceZeroPoint
5041520D
[2018-06-02 21:59:19 229] UART Send: [PAR
]
5041520D0A4C574C33300D0A55504C37350D0A535045302E30320D0A535450302E30320D0A494E54302E30350D0A4D584E31300D0A4D5854310D0A4D5853302E3030350D0A4D4F44330D0A574156312E35343138340D0A54535A2034352E333530300D0A54445A2031392E333135300D0A0A433D
[2018-06-02 21:59:19 364] UART Recv: @1[PAR
LWL30
UPL75
SPE0.02
STP0.02
INT0.05
MXN10
MXT1
MXS0.005
MOD3
WAV1.54184
TSZ 45.3500
TDZ 19.3150

C=]
5041460D
[2018-06-02 21:59:19 364] UART Send: [PAF
]
5041460D
[2018-06-02 21:59:19 491] UART Recv: @1[PAF
]

[2018-06-02 21:59:19 533] [DeviceInit] warmup check=False

[2018-06-02 21:59:19 533] [DeviceInit] warmup skip, GetDeviceZeroPoint
5041520D
[2018-06-02 21:59:19 533] UART Send: [PAR
]
0A5A54412D3030332E333634370D0A0A5A54422D3030312E313037390D0A0A5A54582D3035302E343033350D0A0A5A54592D3035302E383132350D0A0A5A545A2D3030352E303030300D0A0A5354503030302E303230300D0A0A494E543030312E303030300D0A0A535045303034380D0A0A433D5041520D0A4C574C33300D0A55504C37350D0A535045302E30320D0A535450302E30320D0A494E54302E30350D0A4D584E31300D0A4D5854310D0A4D5853302E3030350D0A4D4F44330D0A574156312E35343138340D0A54535A2034352E333530300D0A54445A2031392E333135300D0A0A433D
[2018-06-02 21:59:19 778] UART Recv: @1[
ZTA-003.3647

ZTB-001.1079

ZTX-050.4035

ZTY-050.8125

ZTZ-005.0000

STP000.0200

INT001.0000

SPE0048

C=PAR
LWL30
UPL75
SPE0.02
STP0.02
INT0.05
MXN10
MXT1
MXS0.005
MOD3
WAV1.54184
TSZ 45.3500
TDZ 19.3150

C=]
5041460D
[2018-06-02 21:59:19 778] UART Send: [PAF
]
5041460D
[2018-06-02 21:59:19 904] UART Recv: @1[PAF
]

[2018-06-02 21:59:20 129] [DeviceInit] warmup check=False

[2018-06-02 21:59:20 129] [DeviceInit] warmup skip, GetDeviceZeroPoint
5041520D
[2018-06-02 21:59:20 130] UART Send: [PAR
]
0A5A54412D3030332E333634370D0A0A5A54422D3030312E313037390D0A0A5A54582D3035302E343033350D0A0A5A54592D3035302E383132350D0A0A5A545A2D3030352E303030300D0A0A5354503030302E303230300D0A0A494E543030312E303030300D0A0A535045303034380D0A0A433D5041520D0A4C574C33300D0A55504C37350D0A535045302E30320D0A535450302E30320D0A494E54302E30350D0A4D584E31300D0A4D5854310D0A4D5853302E3030350D0A4D4F44330D0A574156312E35343138340D0A54535A2034352E333530300D0A54445A2031392E333135300D0A0A433D
[2018-06-02 21:59:20 191] UART Recv: @1[
ZTA-003.3647

ZTB-001.1079

ZTX-050.4035

ZTY-050.8125

ZTZ-005.0000

STP000.0200

INT001.0000

SPE0048

C=PAR
LWL30
UPL75
SPE0.02
STP0.02
INT0.05
MXN10
MXT1
MXS0.005
MOD3
WAV1.54184
TSZ 45.3500
TDZ 19.3150

C=]
5041460D
[2018-06-02 21:59:20 191] UART Send: [PAF
]
5041460D
[2018-06-02 21:59:20 317] UART Recv: @1[PAF
]

[2018-06-02 21:59:20 318] [DeviceInit] warmup check=False

[2018-06-02 21:59:20 318] [DeviceInit] warmup skip, GetDeviceZeroPoint
5041520D
[2018-06-02 21:59:20 319] UART Send: [PAR
]

[2018-06-02 21:59:20 485] [DeviceInit] warmup check=False

[2018-06-02 21:59:20 485] [DeviceInit] warmup skip, GetDeviceZeroPoint
5041520D
[2018-06-02 21:59:20 485] UART Send: [PAR
]
0A5A54412D3030332E333634370D0A0A5A54422D3030312E313037390D0A0A5A54582D3035302E343033350D0A0A5A54592D3035302E383132350D0A0A5A545A2D3030352E303030300D0A0A5354503030302E303230300D0A0A494E543030312E303030300D0A0A535045303034380D0A0A433D5041520D0A4C574C33300D0A55504C37350D0A535045302E30320D0A535450302E30320D0A494E54302E30350D0A4D584E31300D0A4D5854310D0A4D5853302E3030350D0A4D4F44330D0A574156312E35343138340D0A54535A2034352E333530300D0A54445A2031392E333135300D0A0A433D5041520D0A4C574C33300D0A55504C37350D0A535045302E30320D0A535450302E30320D0A494E54302E30350D0A4D584E31300D0A4D5854310D0A4D5853302E3030350D0A4D4F44330D0A574156312E35343138340D0A54535A2034352E333530300D0A54445A2031392E333135300D0A0A433D
[2018-06-02 21:59:20 604] UART Recv: @1[
ZTA-003.3647

ZTB-001.1079

ZTX-050.4035

ZTY-050.8125

ZTZ-005.0000

STP000.0200

INT001.0000

SPE0048

C=PAR
LWL30
UPL75
SPE0.02
STP0.02
INT0.05
MXN10
MXT1
MXS0.005
MOD3
WAV1.54184
TSZ 45.3500
TDZ 19.3150

C=PAR
LWL30
UPL75
SPE0.02
STP0.02
INT0.05
MXN10
MXT1
MXS0.005
MOD3
WAV1.54184
TSZ 45.3500
TDZ 19.3150

C=]

[2018-06-02 21:59:20 619] Exception
ZTA-003.3647

ZTB-001.1079

ZTX-050.4035

ZTY-050.8125

ZTZ-005.0000

STP000.0200

INT001.0000

SPE0048

C=PAR
LWL30
UPL75
SPE0.02
STP0.02
INT0.05
MXN10
MXT1
MXS0.005
MOD3
WAV1.54184
TSZ 45.3500
TDZ 19.3150

C=PAR
LWL30
UPL75
SPE0.02
STP0.02
INT0.05
MXN10
MXT1
MXS0.005
MOD3
WAV1.54184
TSZ 45.3500
TDZ 19.3150

C=[System.FormatException: Input string was not in a correct format.
   at System.Number.ParseDouble(String value, NumberStyles options, NumberFormatInfo numfmt)
   at System.Convert.ToDouble(String value)
   at DllLibrary.SDDDetector.RecvDeviceZeroPoint(Byte[] data, Double[]& zeropoint) in d:\PCTool\XRD_Tool\DllLibrary\SDDDetector.cs:line 154
   at XRD_Tool.MeasureApi.RecvGetDeviceZeroPoint(Byte[] data) in d:\PCTool\XRD_Tool\XRD_Tool\MeasureApi.cs:line 243]
00000000
[2018-06-02 21:59:21 398] TCP Recv: []

[2018-06-02 21:59:21 406] [DeviceInit] warmup check=False

[2018-06-02 21:59:21 406] [DeviceInit] warmup skip, GetDeviceZeroPoint
5041520D
[2018-06-02 21:59:21 406] UART Send: [PAR
]
5041520D0A4C574C33300D0A55504C37350D0A535045302E30320D0A535450302E30320D0A494E54302E30350D0A4D584E31300D0A4D5854310D0A4D5853302E3030350D0A4D4F44330D0A574156312E35343138340D0A54535A2034352E333530300D0A54445A2031392E333135300D0A0A433D
[2018-06-02 21:59:21 543] UART Recv: @1[PAR
LWL30
UPL75
SPE0.02
STP0.02
INT0.05
MXN10
MXT1
MXS0.005
MOD3
WAV1.54184
TSZ 45.3500
TDZ 19.3150

C=]
5041460D
[2018-06-02 21:59:21 543] UART Send: [PAF
]

[2018-06-02 21:59:21 581] [DeviceInit] warmup check=False

[2018-06-02 21:59:21 581] [DeviceInit] warmup skip, GetDeviceZeroPoint
5041520D
[2018-06-02 21:59:21 581] UART Send: [PAR
]
5041460D
[2018-06-02 21:59:21 671] UART Recv: @1[PAF
]

[2018-06-02 21:59:21 749] [DeviceInit] warmup check=False

[2018-06-02 21:59:21 749] [DeviceInit] warmup skip, GetDeviceZeroPoint
5041520D
[2018-06-02 21:59:21 749] UART Send: [PAR
]
0A5A54412D3030332E333634370D0A0A5A54422D3030312E313037390D0A0A5A54582D3035302E343033350D0A0A5A54592D3035302E383132350D0A0A5A545A2D3030352E303030300D0A0A5354503030302E303230300D0A0A494E543030312E303030300D0A0A535045303034380D0A0A433D5041520D0A4C574C33300D0A55504C37350D0A535045302E30320D0A535450302E30320D0A494E54302E30350D0A4D584E31300D0A4D5854310D0A4D5853302E3030350D0A4D4F44330D0A574156312E35343138340D0A54535A2034352E333530300D0A54445A2031392E333135300D0A0A433D5041520D0A4C574C33300D0A55504C37350D0A535045302E30320D0A535450302E30320D0A494E54302E30350D0A4D584E31300D0A4D5854310D0A4D5853302E3030350D0A4D4F44330D0A574156312E35343138340D0A54535A2034352E333530300D0A54445A2031392E333135300D0A0A433D
[2018-06-02 21:59:21 959] UART Recv: @1[
ZTA-003.3647

ZTB-001.1079

ZTX-050.4035

ZTY-050.8125

ZTZ-005.0000

STP000.0200

INT001.0000

SPE0048

C=PAR
LWL30
UPL75
SPE0.02
STP0.02
INT0.05
MXN10
MXT1
MXS0.005
MOD3
WAV1.54184
TSZ 45.3500
TDZ 19.3150

C=PAR
LWL30
UPL75
SPE0.02
STP0.02
INT0.05
MXN10
MXT1
MXS0.005
MOD3
WAV1.54184
TSZ 45.3500
TDZ 19.3150

C=]

[2018-06-02 21:59:21 967] Exception
ZTA-003.3647

ZTB-001.1079

ZTX-050.4035

ZTY-050.8125

ZTZ-005.0000

STP000.0200

INT001.0000

SPE0048

C=PAR
LWL30
UPL75
SPE0.02
STP0.02
INT0.05
MXN10
MXT1
MXS0.005
MOD3
WAV1.54184
TSZ 45.3500
TDZ 19.3150

C=PAR
LWL30
UPL75
SPE0.02
STP0.02
INT0.05
MXN10
MXT1
MXS0.005
MOD3
WAV1.54184
TSZ 45.3500
TDZ 19.3150

C=[System.FormatException: Input string was not in a correct format.
   at System.Number.ParseDouble(String value, NumberStyles options, NumberFormatInfo numfmt)
   at System.Convert.ToDouble(String value)
   at DllLibrary.SDDDetector.RecvDeviceZeroPoint(Byte[] data, Double[]& zeropoint) in d:\PCTool\XRD_Tool\DllLibrary\SDDDetector.cs:line 154
   at XRD_Tool.MeasureApi.RecvGetDeviceZeroPoint(Byte[] data) in d:\PCTool\XRD_Tool\XRD_Tool\MeasureApi.cs:line 243]

[2018-06-02 21:59:24 341] [DeviceInit] warmup check=False

[2018-06-02 21:59:24 341] [DeviceInit] warmup skip, GetDeviceZeroPoint
5041520D
[2018-06-02 21:59:24 341] UART Send: [PAR
]
5041520D0A4C574C33300D0A55504C37350D0A535045302E30320D0A535450302E30320D0A494E54302E30350D0A4D584E31300D0A4D5854310D0A4D5853302E3030350D0A4D4F44330D0A574156312E35343138340D0A54535A2034352E333530300D0A54445A2031392E333135300D0A0A433D
[2018-06-02 21:59:24 464] UART Recv: @1[PAR
LWL30
UPL75
SPE0.02
STP0.02
INT0.05
MXN10
MXT1
MXS0.005
MOD3
WAV1.54184
TSZ 45.3500
TDZ 19.3150

C=]
5041460D
[2018-06-02 21:59:24 464] UART Send: [PAF
]

[2018-06-02 21:59:24 511] [DeviceInit] warmup check=False

[2018-06-02 21:59:24 511] [DeviceInit] warmup skip, GetDeviceZeroPoint
5041520D
[2018-06-02 21:59:24 511] UART Send: [PAR
]
5041460D
[2018-06-02 21:59:24 590] UART Recv: @1[PAF
]

[2018-06-02 21:59:24 669] [DeviceInit] warmup check=False

[2018-06-02 21:59:24 669] [DeviceInit] warmup skip, GetDeviceZeroPoint
5041520D
[2018-06-02 21:59:24 669] UART Send: [PAR
]
0A5A54412D3030332E333634370D0A0A5A54422D3030312E313037390D0A0A5A54582D3035302E343033350D0A0A5A54592D3035302E383132350D0A0A5A545A2D3030352E303030300D0A0A5354503030302E303230300D0A0A494E543030312E303030300D0A0A535045303034380D0A0A433D5041520D0A4C574C33300D0A55504C37350D0A535045302E30320D0A535450302E30320D0A494E54302E30350D0A4D584E31300D0A4D5854310D0A4D5853302E3030350D0A4D4F44330D0A574156312E35343138340D0A54535A2034352E333530300D0A54445A2031392E333135300D0A0A433D5041520D0A4C574C33300D0A55504C37350D0A535045302E30320D0A535450302E30320D0A494E54302E30350D0A4D584E31300D0A4D5854310D0A4D5853302E3030350D0A4D4F44330D0A574156312E35343138340D0A54535A2034352E333530300D0A54445A2031392E333135300D0A0A433D
[2018-06-02 21:59:24 878] UART Recv: @1[
ZTA-003.3647

ZTB-001.1079

ZTX-050.4035

ZTY-050.8125

ZTZ-005.0000

STP000.0200

INT001.0000

SPE0048

C=PAR
LWL30
UPL75
SPE0.02
STP0.02
INT0.05
MXN10
MXT1
MXS0.005
MOD3
WAV1.54184
TSZ 45.3500
TDZ 19.3150

C=PAR
LWL30
UPL75
SPE0.02
STP0.02
INT0.05
MXN10
MXT1
MXS0.005
MOD3
WAV1.54184
TSZ 45.3500
TDZ 19.3150

C=]

[2018-06-02 21:59:24 908] Exception
ZTA-003.3647

ZTB-001.1079

ZTX-050.4035

ZTY-050.8125

ZTZ-005.0000

STP000.0200

INT001.0000

SPE0048

C=PAR
LWL30
UPL75
SPE0.02
STP0.02
INT0.05
MXN10
MXT1
MXS0.005
MOD3
WAV1.54184
TSZ 45.3500
TDZ 19.3150

C=PAR
LWL30
UPL75
SPE0.02
STP0.02
INT0.05
MXN10
MXT1
MXS0.005
MOD3
WAV1.54184
TSZ 45.3500
TDZ 19.3150

C=[System.FormatException: Input string was not in a correct format.
   at System.Number.ParseDouble(String value, NumberStyles options, NumberFormatInfo numfmt)
   at System.Convert.ToDouble(String value)
   at DllLibrary.SDDDetector.RecvDeviceZeroPoint(Byte[] data, Double[]& zeropoint) in d:\PCTool\XRD_Tool\DllLibrary\SDDDetector.cs:line 154
   at XRD_Tool.MeasureApi.RecvGetDeviceZeroPoint(Byte[] data) in d:\PCTool\XRD_Tool\XRD_Tool\MeasureApi.cs:line 243]

[2018-06-02 21:59:28 463] [DeviceInit] Init Skip

[2018-06-02 21:59:29 791] [Parent] Menu Measure

[2018-06-02 21:59:29 853] [Measure] check 5 Axis=Unchecked
[2018-06-02 22:19:27 816]Log Start******************************************************

[2018-06-02 22:19:29 137] [UserLogin] login succeed!user=administrator,pwd=123456

[2018-06-02 22:19:29 271] [DeviceInit] Init Start
2F0D
[2018-06-02 22:19:29 276] UART Send: [/
]
0D0A433D
[2018-06-02 22:19:29 405] UART Recv: @1[
C=]
5246460D
[2018-06-02 22:19:29 408] UART Send: [RFF
]
5246460D0A2B2B3130310D0A433D
[2018-06-02 22:19:29 542] UART Recv: @1[RFF
++101
C=]
524B4D0D
[2018-06-02 22:19:29 544] UART Send: [RKM
]
524B4D0D32342E39360D200D33302E30320D0A433D
[2018-06-02 22:19:29 670] UART Recv: @1[RKM
24.96

30.02
C=]

[2018-06-02 22:19:30 700] [DeviceInit] warmup check=False

[2018-06-02 22:19:30 700] [DeviceInit] warmup skip, GetDeviceZeroPoint
5041520D
[2018-06-02 22:19:30 702] UART Send: [PAR
]
5041520D0A4C574C33300D0A55504C37350D0A535045302E30320D0A535450302E30320D0A494E54302E30350D0A4D584E31300D0A4D5854310D0A4D5853302E3030350D0A4D4F44330D0A574156312E35343138340D0A54535A2034352E333530300D0A54445A2031392E333135300D0A0A433D
[2018-06-02 22:19:30 836] UART Recv: @1[PAR
LWL30
UPL75
SPE0.02
STP0.02
INT0.05
MXN10
MXT1
MXS0.005
MOD3
WAV1.54184
TSZ 45.3500
TDZ 19.3150

C=]
5041460D
[2018-06-02 22:19:30 839] UART Send: [PAF
]
5041460D
[2018-06-02 22:19:30 963] UART Recv: @1[PAF
]
0A5A54412D3030332E333634370D0A0A5A54422D3030312E313037390D0A0A5A54582D3035302E343033350D0A0A5A54592D3035302E383132350D0A0A5A545A2D3030352E303030300D0A0A5354503030302E303230300D0A0A494E543030312E303030300D0A0A535045303034380D0A0A433D
[2018-06-02 22:19:31 250] UART Recv: @1[
ZTA-003.3647

ZTB-001.1079

ZTX-050.4035

ZTY-050.8125

ZTZ-005.0000

STP000.0200

INT001.0000

SPE0048

C=]
534450320D
[2018-06-02 22:19:31 253] UART Send: [SDP2
]
534450320D
[2018-06-02 22:19:31 377] UART Recv: @1[SDP2
]
0A433D
[2018-06-02 22:19:31 521] UART Recv: @1[
C=]
2D7265736574
[2018-06-02 22:19:31 542] TCP Send: [-reset]

[2018-06-02 22:19:31 583] Exception[System.ArgumentNullException: Value cannot be null.
Parameter name: value
   at System.BitConverter.ToInt32(Byte[] value, Int32 startIndex)
   at XRD_Tool.MeasureApi.RecvTCPCmdResultCheck(Byte[] cmd, Int32& code) in d:\PCTool\XRD_Tool\XRD_Tool\MeasureApi.cs:line 1130]
00000000
[2018-06-02 22:19:33 975] TCP Recv: []
2D73657474696E6773204372
[2018-06-02 22:19:33 976] TCP Send: [-settings Cr]
00000000
[2018-06-02 22:19:34 235] TCP Recv: []

[2018-06-02 22:19:34 236] [DeviceInit] Init Finish

[2018-06-02 22:20:23 303] [Parent] Menu Measure

[2018-06-02 22:20:23 418] [Measure] check 5 Axis=Unchecked

[2018-06-02 22:20:34 270] [Measure] Measure Methord changed3

[2018-06-02 22:20:34 270] [Measure] check 5 Axis=Unchecked

[2018-06-02 22:20:35 977] [Measure] Measure Methord changed2

[2018-06-02 22:20:35 977] [Measure] check 5 Axis=Unchecked

[2018-06-02 22:20:43 508] [Parent] closing
[2018-06-02 22:20:43 510]Log End******************************************************