File: XRD_Tool/XRD_Tool/bin/Debug/20180527-log.txt
[2018-05-27 11:57:09 438] UART Send: [
]

0D
[2018-05-27 11:57:09 563] UART Recv: @1[
C=]

0D0A433D
[2018-05-27 11:57:09 563] UART Send: [RFF
]

5246460D
[2018-05-27 11:57:09 703] UART Recv: @1[RFF
++101
C=]

5246460D0A2B2B3130310D0A433D
[2018-05-27 11:57:09 703] UART Send: [RKM
]

524B4D0D
[2018-05-27 11:57:09 843] UART Recv: @1[RKM
09.93

04.79
C=]

524B4D0D30392E39330D200D30342E37390D0A433D
[2018-05-27 11:57:28 127] UART Send: [/
]

2F0D
[2018-05-27 11:57:28 267] UART Recv: @3[
C=]

0D0A433D
[2018-05-27 11:57:28 267] UART Send: [MOD3
]

4D4F44330D
[2018-05-27 11:57:28 392] UART Recv: @3[MOD3
MOD3
MOD3
C=]

4D4F44330D0A4D4F44330D0A4D4F44330D0A433D
[2018-05-27 11:57:28 392] UART Send: [INT0.05
]

494E54302E30350D
[2018-05-27 11:57:28 532] UART Recv: @3[INT0.05
INT0.05
INT0.05
C=]

494E54302E30350D0A494E54302E30350D0A494E54302E30350D0A433D
[2018-05-27 11:57:28 532] UART Send: [STP0.02
]

535450302E30320D
[2018-05-27 11:57:28 673] UART Recv: @3[STP0.02
STP0.02
STP0.02
C=]

535450302E30320D0A535450302E30320D0A535450302E30320D0A433D
[2018-05-27 11:57:28 673] UART Send: [STA0
]

535441300D
[2018-05-27 11:57:28 797] UART Recv: @3[STA0
]

535441300D
[2018-05-27 11:57:38 376] UART Recv: @3[
C=   0.0000
C=]

0A433D202020302E303030300D0A433D
[2018-05-27 11:57:38 376] UART Send: [SAN147.5
]

53414E3134372E350D
[2018-05-27 11:57:38 501] UART Recv: @3[SAN147.5
]

53414E3134372E350D
[2018-05-27 11:57:39 764] UART Recv: @3[
C=]

0A433D
[2018-05-27 11:57:39 764] UART Send: [SKM25 30
]

534B4D32352033300D
[2018-05-27 11:57:39 889] UART Recv: @3[SKM25 30
]

534B4D32352033300D
[2018-05-27 11:57:44 616] UART Recv: @3[
C=]

0A433D
[2018-05-27 11:57:44 616] UART Send: [RKM
]

524B4D0D
[2018-05-27 11:57:44 756] UART Recv: @3[RKM
24.96

28.40
C=]

524B4D0D32342E39360D200D32382E34300D0A433D
[2018-05-27 11:57:44 756] UART Send: [SHO
]

53484F0D
[2018-05-27 11:57:44 897] UART Recv: @3[SHO
C=]

53484F0D0A433D
[2018-05-27 11:57:44 897] UART Send: [SSC5
]

535343350D
[2018-05-27 11:57:45 053] UART Recv: @3[SSC5
 147.5000       52
 147.5200       56
]

535343350D0A203134372E353030302020202020202035320D0A203134372E353230302020202020202035360D
[2018-05-27 11:57:45 053] CountDown start[0,42]

[2018-05-27 11:57:45 209] UART Recv: @3[
 147.5400       44
 147.5600       38
]

0A203134372E353430302020202020202034340D0A203134372E353630302020202020202033380D
[2018-05-27 11:57:45 209] CountDown start[0,42]

[2018-05-27 11:57:45 349] UART Recv: @3[
 147.5800       69
 147.6000       60
]

0A203134372E353830302020202020202036390D0A203134372E363030302020202020202036300D
[2018-05-27 11:57:45 349] CountDown start[0,42]

[2018-05-27 11:57:45 474] UART Recv: @3[
 147.6200       45
 147.6400       44
]

0A203134372E363230302020202020202034350D0A203134372E363430302020202020202034340D
[2018-05-27 11:57:45 474] CountDown start[0,42]

[2018-05-27 11:57:45 599] UART Recv: @3[
 147.6600       40
 147.6800       50
]

0A203134372E363630302020202020202034300D0A203134372E363830302020202020202035300D
[2018-05-27 11:57:45 599] CountDown start[0,42]

[2018-05-27 11:57:45 723] UART Recv: @3[
 147.7000       64
 147.7200       53
]

0A203134372E373030302020202020202036340D0A203134372E373230302020202020202035330D
[2018-05-27 11:57:45 723] CountDown start[0,42]

[2018-05-27 11:57:45 848] UART Recv: @3[
 147.7400       50
 147.7600       59
]

0A203134372E373430302020202020202035300D0A203134372E373630302020202020202035390D
[2018-05-27 11:57:45 848] CountDown start[0,42]

[2018-05-27 11:57:45 989] UART Recv: @3[
 147.7800       52
 147.8000       62
]

0A203134372E373830302020202020202035320D0A203134372E383030302020202020202036320D
[2018-05-27 11:57:45 989] CountDown start[0,42]

[2018-05-27 11:57:46 067] CountDown[0,42]

[2018-05-27 11:57:46 129] UART Recv: @3[
 147.8200       55
 147.8400       41
]

0A203134372E383230302020202020202035350D0A203134372E383430302020202020202034310D
[2018-05-27 11:57:46 129] CountDown start[0,42]

[2018-05-27 11:57:46 254] UART Recv: @3[
 147.8600       45
 147.8800       48
]

0A203134372E383630302020202020202034350D0A203134372E383830302020202020202034380D
[2018-05-27 11:57:46 254] CountDown start[0,42]

[2018-05-27 11:57:46 379] UART Recv: @3[
 147.9000       44
 147.9200       45
]

0A203134372E393030302020202020202034340D0A203134372E393230302020202020202034350D
[2018-05-27 11:57:46 379] CountDown start[0,42]

[2018-05-27 11:57:46 503] UART Recv: @3[
 147.9400       51
 147.9600       54
]

0A203134372E393430302020202020202035310D0A203134372E393630302020202020202035340D
[2018-05-27 11:57:46 503] CountDown start[0,42]

[2018-05-27 11:57:46 644] UART Recv: @3[
 147.9800       46
 148.0000       56
]

0A203134372E393830302020202020202034360D0A203134382E303030302020202020202035360D
[2018-05-27 11:57:46 644] CountDown start[0,42]

[2018-05-27 11:57:46 769] UART Recv: @3[
 148.0200       51
 148.0400       60
]

0A203134382E303230302020202020202035310D0A203134382E303430302020202020202036300D
[2018-05-27 11:57:46 769] CountDown start[0,42]

[2018-05-27 11:57:46 893] UART Recv: @3[
 148.0600       50
 148.0800       52
]

0A203134382E303630302020202020202035300D0A203134382E303830302020202020202035320D
[2018-05-27 11:57:46 893] CountDown start[0,42]

[2018-05-27 11:57:47 018] UART Recv: @3[
 148.1000       47
 148.1200       50
]

0A203134382E313030302020202020202034370D0A203134382E313230302020202020202035300D
[2018-05-27 11:57:47 018] CountDown start[0,42]

[2018-05-27 11:57:47 081] CountDown[0,42]

[2018-05-27 11:57:47 143] UART Recv: @3[
 148.1400       48
 148.1600       54
]

0A203134382E313430302020202020202034380D0A203134382E313630302020202020202035340D
[2018-05-27 11:57:47 143] CountDown start[0,42]

[2018-05-27 11:57:47 299] UART Recv: @3[
 148.1800       61
 148.2000       45
]

0A203134382E313830302020202020202036310D0A203134382E323030302020202020202034350D
[2018-05-27 11:57:47 299] CountDown start[0,42]

[2018-05-27 11:57:47 424] UART Recv: @3[
 148.2200       56
 148.2400       43
]

0A203134382E323230302020202020202035360D0A203134382E323430302020202020202034330D
[2018-05-27 11:57:47 424] CountDown start[0,42]

[2018-05-27 11:57:47 549] UART Recv: @3[
 148.2600       51
 148.2800       62
]

0A203134382E323630302020202020202035310D0A203134382E323830302020202020202036320D
[2018-05-27 11:57:47 549] CountDown start[0,42]

[2018-05-27 11:57:47 673] UART Recv: @3[
 148.3000       58
 148.3200       44
]

0A203134382E333030302020202020202035380D0A203134382E333230302020202020202034340D
[2018-05-27 11:57:47 673] CountDown start[0,42]

[2018-05-27 11:57:47 798] UART Recv: @3[
 148.3400       48
 148.3600       72
]

0A203134382E333430302020202020202034380D0A203134382E333630302020202020202037320D
[2018-05-27 11:57:47 798] CountDown start[0,42]

[2018-05-27 11:57:47 939] UART Recv: @3[
 148.3800       52
 148.4000       59
]

0A203134382E333830302020202020202035320D0A203134382E343030302020202020202035390D
[2018-05-27 11:57:47 939] CountDown start[0,42]

[2018-05-27 11:57:48 063] UART Recv: @3[
 148.4200       58
 148.4400       53
]

0A203134382E343230302020202020202035380D0A203134382E343430302020202020202035330D
[2018-05-27 11:57:48 063] CountDown start[0,42]

[2018-05-27 11:57:48 095] CountDown[0,42]

[2018-05-27 11:57:48 188] UART Recv: @3[
 148.4600       55
 148.4800       67
]

0A203134382E343630302020202020202035350D0A203134382E343830302020202020202036370D
[2018-05-27 11:57:48 188] CountDown start[0,42]

[2018-05-27 11:57:48 313] UART Recv: @3[
 148.5000       71
 148.5200       48
]

0A203134382E353030302020202020202037310D0A203134382E353230302020202020202034380D
[2018-05-27 11:57:48 313] CountDown start[0,42]

[2018-05-27 11:57:48 453] UART Recv: @3[
 148.5400       51
 148.5600       44
]

0A203134382E353430302020202020202035310D0A203134382E353630302020202020202034340D
[2018-05-27 11:57:48 453] CountDown start[0,42]

[2018-05-27 11:57:48 594] UART Recv: @3[
 148.5800       54
 148.6000       47
]

0A203134382E353830302020202020202035340D0A203134382E363030302020202020202034370D
[2018-05-27 11:57:48 594] CountDown start[0,42]

[2018-05-27 11:57:48 719] UART Recv: @3[
 148.6200       70
 148.6400       56
]

0A203134382E363230302020202020202037300D0A203134382E363430302020202020202035360D
[2018-05-27 11:57:48 719] CountDown start[0,42]

[2018-05-27 11:57:48 843] UART Recv: @3[
 148.6600       58
 148.6800       52
]

0A203134382E363630302020202020202035380D0A203134382E363830302020202020202035320D
[2018-05-27 11:57:48 843] CountDown start[0,42]

[2018-05-27 11:57:48 968] UART Recv: @3[
 148.7000       63
 148.7200       64
]

0A203134382E373030302020202020202036330D0A203134382E373230302020202020202036340D
[2018-05-27 11:57:48 968] CountDown start[0,42]

[2018-05-27 11:57:49 093] UART Recv: @3[
 148.7400       43
 148.7600       54
]

0A203134382E373430302020202020202034330D0A203134382E373630302020202020202035340D
[2018-05-27 11:57:49 093] CountDown start[0,42]

[2018-05-27 11:57:49 109] CountDown[0,42]

[2018-05-27 11:57:49 233] UART Recv: @3[
 148.7800       52
 148.8000       68
]

0A203134382E373830302020202020202035320D0A203134382E383030302020202020202036380D
[2018-05-27 11:57:49 233] CountDown start[0,42]

[2018-05-27 11:57:49 358] UART Recv: @3[
 148.8200       36
 148.8400       58
]

0A203134382E383230302020202020202033360D0A203134382E383430302020202020202035380D
[2018-05-27 11:57:49 358] CountDown start[0,42]

[2018-05-27 11:57:49 483] UART Recv: @3[
 148.8600       54
 148.8800       58
]

0A203134382E383630302020202020202035340D0A203134382E383830302020202020202035380D
[2018-05-27 11:57:49 483] CountDown start[0,42]

[2018-05-27 11:57:49 608] UART Recv: @3[
 148.9000       49
 148.9200       60
]

0A203134382E393030302020202020202034390D0A203134382E393230302020202020202036300D
[2018-05-27 11:57:49 608] CountDown start[0,42]

[2018-05-27 11:57:49 748] UART Recv: @3[
 148.9400       55
 148.9600       53
]

0A203134382E393430302020202020202035350D0A203134382E393630302020202020202035330D
[2018-05-27 11:57:49 748] CountDown start[0,42]

[2018-05-27 11:57:49 889] UART Recv: @3[
 148.9800       51
 149.0000       44
]

0A203134382E393830302020202020202035310D0A203134392E303030302020202020202034340D
[2018-05-27 11:57:49 889] CountDown start[0,42]

[2018-05-27 11:57:50 013] UART Recv: @3[
 149.0200       52
 149.0400       55
]

0A203134392E303230302020202020202035320D0A203134392E303430302020202020202035350D
[2018-05-27 11:57:50 013] CountDown start[0,42]

[2018-05-27 11:57:50 123] CountDown[0,42]

[2018-05-27 11:57:50 138] UART Recv: @3[
 149.0600       64
 149.0800       60
]

0A203134392E303630302020202020202036340D0A203134392E303830302020202020202036300D
[2018-05-27 11:57:50 138] CountDown start[0,42]

[2018-05-27 11:57:50 263] UART Recv: @3[
 149.1000       67
 149.1200       61
]

0A203134392E313030302020202020202036370D0A203134392E313230302020202020202036310D
[2018-05-27 11:57:50 263] CountDown start[0,42]

[2018-05-27 11:57:50 388] UART Recv: @3[
 149.1400       48
 149.1600       46
]

0A203134392E313430302020202020202034380D0A203134392E313630302020202020202034360D
[2018-05-27 11:57:50 388] CountDown start[0,42]

[2018-05-27 11:57:50 528] UART Recv: @3[
 149.1800       65
 149.2000       66
]

0A203134392E313830302020202020202036350D0A203134392E323030302020202020202036360D
[2018-05-27 11:57:50 528] CountDown start[0,42]

[2018-05-27 11:57:50 653] UART Recv: @3[
 149.2200       51
 149.2400       80
]

0A203134392E323230302020202020202035310D0A203134392E323430302020202020202038300D
[2018-05-27 11:57:50 653] CountDown start[0,42]

[2018-05-27 11:57:50 778] UART Recv: @3[
 149.2600       59
 149.2800       62
]

0A203134392E323630302020202020202035390D0A203134392E323830302020202020202036320D
[2018-05-27 11:57:50 778] CountDown start[0,42]

[2018-05-27 11:57:50 918] UART Recv: @3[
 149.3000       52
 149.3200       57
]

0A203134392E333030302020202020202035320D0A203134392E333230302020202020202035370D
[2018-05-27 11:57:50 918] CountDown start[0,42]

[2018-05-27 11:57:51 043] UART Recv: @3[
 149.3400       48
 149.3600       41
]

0A203134392E333430302020202020202034380D0A203134392E333630302020202020202034310D
[2018-05-27 11:57:51 043] CountDown start[0,42]

[2018-05-27 11:57:51 137] CountDown[0,42]

[2018-05-27 11:57:51 183] UART Recv: @3[
 149.3800       55
 149.4000       65
]

0A203134392E333830302020202020202035350D0A203134392E343030302020202020202036350D
[2018-05-27 11:57:51 183] CountDown start[0,42]

[2018-05-27 11:57:51 308] UART Recv: @3[
 149.4200       62
 149.4400       77
]

0A203134392E343230302020202020202036320D0A203134392E343430302020202020202037370D
[2018-05-27 11:57:51 308] CountDown start[0,42]

[2018-05-27 11:57:51 433] UART Recv: @3[
 149.4600       59
 149.4800       60
]

0A203134392E343630302020202020202035390D0A203134392E343830302020202020202036300D
[2018-05-27 11:57:51 433] CountDown start[0,42]

[2018-05-27 11:57:51 558] UART Recv: @3[
 149.5000       49
 149.5200       51
]

0A203134392E353030302020202020202034390D0A203134392E353230302020202020202035310D
[2018-05-27 11:57:51 558] CountDown start[0,42]

[2018-05-27 11:57:51 683] UART Recv: @3[
 149.5400       60
 149.5600       54
]

0A203134392E353430302020202020202036300D0A203134392E353630302020202020202035340D
[2018-05-27 11:57:51 683] CountDown start[0,42]

[2018-05-27 11:57:51 823] UART Recv: @3[
 149.5800       52
 149.6000       59
]

0A203134392E353830302020202020202035320D0A203134392E363030302020202020202035390D
[2018-05-27 11:57:51 823] CountDown start[0,42]

[2018-05-27 11:57:51 948] UART Recv: @3[
 149.6200       58
 149.6400       62
]

0A203134392E363230302020202020202035380D0A203134392E363430302020202020202036320D
[2018-05-27 11:57:51 948] CountDown start[0,42]

[2018-05-27 11:57:52 073] UART Recv: @3[
 149.6600       61
 149.6800       62
]

0A203134392E363630302020202020202036310D0A203134392E363830302020202020202036320D
[2018-05-27 11:57:52 073] CountDown start[0,42]

[2018-05-27 11:57:52 151] CountDown[0,42]

[2018-05-27 11:57:52 213] UART Recv: @3[
 149.7000       58
 149.7200       63
]

0A203134392E373030302020202020202035380D0A203134392E373230302020202020202036330D
[2018-05-27 11:57:52 213] CountDown start[0,42]

[2018-05-27 11:57:52 338] UART Recv: @3[
 149.7400       70
 149.7600       60
]

0A203134392E373430302020202020202037300D0A203134392E373630302020202020202036300D
[2018-05-27 11:57:52 338] CountDown start[0,42]

[2018-05-27 11:57:52 478] UART Recv: @3[
 149.7800       68
 149.8000       61
]

0A203134392E373830302020202020202036380D0A203134392E383030302020202020202036310D
[2018-05-27 11:57:52 478] CountDown start[0,42]

[2018-05-27 11:57:52 603] UART Recv: @3[
 149.8200       65
 149.8400       69
]

0A203134392E383230302020202020202036350D0A203134392E383430302020202020202036390D
[2018-05-27 11:57:52 603] CountDown start[0,42]

[2018-05-27 11:57:52 728] UART Recv: @3[
 149.8600       74
 149.8800       60
]

0A203134392E383630302020202020202037340D0A203134392E383830302020202020202036300D
[2018-05-27 11:57:52 728] CountDown start[0,42]

[2018-05-27 11:57:52 853] UART Recv: @3[
 149.9000       73
 149.9200       62
]

0A203134392E393030302020202020202037330D0A203134392E393230302020202020202036320D
[2018-05-27 11:57:52 853] CountDown start[0,42]

[2018-05-27 11:57:52 977] UART Recv: @3[
 149.9400       53
 149.9600       60
]

0A203134392E393430302020202020202035330D0A203134392E393630302020202020202036300D
[2018-05-27 11:57:52 977] CountDown start[0,42]

[2018-05-27 11:57:53 118] UART Recv: @3[
 149.9800       62
 150.0000       63
]

0A203134392E393830302020202020202036320D0A203135302E303030302020202020202036330D
[2018-05-27 11:57:53 118] CountDown start[0,42]

[2018-05-27 11:57:53 165] CountDown[0,42]

[2018-05-27 11:57:53 243] UART Recv: @3[
 150.0200       69
 150.0400       75
]

0A203135302E303230302020202020202036390D0A203135302E303430302020202020202037350D
[2018-05-27 11:57:53 243] CountDown start[0,42]

[2018-05-27 11:57:53 383] UART Recv: @3[
 150.0600       60
 150.0800       64
]

0A203135302E303630302020202020202036300D0A203135302E303830302020202020202036340D
[2018-05-27 11:57:53 383] CountDown start[0,42]

[2018-05-27 11:57:53 508] UART Recv: @3[
 150.1000       72
 150.1200       73
]

0A203135302E313030302020202020202037320D0A203135302E313230302020202020202037330D
[2018-05-27 11:57:53 508] CountDown start[0,42]

[2018-05-27 11:57:53 633] UART Recv: @3[
 150.1400       57
 150.1600       64
]

0A203135302E313430302020202020202035370D0A203135302E313630302020202020202036340D
[2018-05-27 11:57:53 633] CountDown start[0,42]

[2018-05-27 11:57:53 773] UART Recv: @3[
 150.1800       57
 150.2000       73
]

0A203135302E313830302020202020202035370D0A203135302E323030302020202020202037330D
[2018-05-27 11:57:53 773] CountDown start[0,42]

[2018-05-27 11:57:53 898] UART Recv: @3[
 150.2200       71
 150.2400       60
]

0A203135302E323230302020202020202037310D0A203135302E323430302020202020202036300D
[2018-05-27 11:57:53 898] CountDown start[0,42]

[2018-05-27 11:57:54 023] UART Recv: @3[
 150.2600       64
 150.2800       59
]

0A203135302E323630302020202020202036340D0A203135302E323830302020202020202035390D
[2018-05-27 11:57:54 023] CountDown start[0,42]

[2018-05-27 11:57:54 147] UART Recv: @3[
 150.3000       70
 150.3200       58
]

0A203135302E333030302020202020202037300D0A203135302E333230302020202020202035380D
[2018-05-27 11:57:54 147] CountDown start[0,42]

[2018-05-27 11:57:54 179] CountDown[0,42]

[2018-05-27 11:57:54 272] UART Recv: @3[
 150.3400       69
 150.3600       69
]

0A203135302E333430302020202020202036390D0A203135302E333630302020202020202036390D
[2018-05-27 11:57:54 272] CountDown start[0,42]

[2018-05-27 11:57:54 413] UART Recv: @3[
 150.3800       68
 150.4000       76
]

0A203135302E333830302020202020202036380D0A203135302E343030302020202020202037360D
[2018-05-27 11:57:54 413] CountDown start[0,42]

[2018-05-27 11:57:54 553] UART Recv: @3[
 150.4200       67
 150.4400       66
]

0A203135302E343230302020202020202036370D0A203135302E343430302020202020202036360D
[2018-05-27 11:57:54 553] CountDown start[0,42]

[2018-05-27 11:57:54 678] UART Recv: @3[
 150.4600       66
 150.4800       59
]

0A203135302E343630302020202020202036360D0A203135302E343830302020202020202035390D
[2018-05-27 11:57:54 678] CountDown start[0,42]

[2018-05-27 11:57:54 803] UART Recv: @3[
 150.5000       53
 150.5200       80
]

0A203135302E353030302020202020202035330D0A203135302E353230302020202020202038300D
[2018-05-27 11:57:54 803] CountDown start[0,42]

[2018-05-27 11:57:54 927] UART Recv: @3[
 150.5400       57
 150.5600       65
]

0A203135302E353430302020202020202035370D0A203135302E353630302020202020202036350D
[2018-05-27 11:57:54 927] CountDown start[0,42]

[2018-05-27 11:57:55 068] UART Recv: @3[
 150.5800       79
 150.6000       76
]

0A203135302E353830302020202020202037390D0A203135302E363030302020202020202037360D
[2018-05-27 11:57:55 068] CountDown start[0,42]

[2018-05-27 11:57:55 193] CountDown[0,42]

[2018-05-27 11:57:55 193] UART Recv: @3[
 150.6200       78
 150.6400       82
]

0A203135302E363230302020202020202037380D0A203135302E363430302020202020202038320D
[2018-05-27 11:57:55 193] CountDown start[0,42]

[2018-05-27 11:57:55 317] UART Recv: @3[
 150.6600       60
 150.6800       69
]

0A203135302E363630302020202020202036300D0A203135302E363830302020202020202036390D
[2018-05-27 11:57:55 317] CountDown start[0,42]

[2018-05-27 11:57:55 442] UART Recv: @3[
 150.7000       88
 150.7200       68
]

0A203135302E373030302020202020202038380D0A203135302E373230302020202020202036380D
[2018-05-27 11:57:55 442] CountDown start[0,42]

[2018-05-27 11:57:55 567] UART Recv: @3[
 150.7400       80
 150.7600       62
]

0A203135302E373430302020202020202038300D0A203135302E373630302020202020202036320D
[2018-05-27 11:57:55 567] CountDown start[0,42]

[2018-05-27 11:57:55 707] UART Recv: @3[
 150.7800       78
 150.8000       71
]

0A203135302E373830302020202020202037380D0A203135302E383030302020202020202037310D
[2018-05-27 11:57:55 707] CountDown start[0,42]

[2018-05-27 11:57:55 848] UART Recv: @3[
 150.8200       72
 150.8400       84
]

0A203135302E383230302020202020202037320D0A203135302E383430302020202020202038340D
[2018-05-27 11:57:55 848] CountDown start[0,42]

[2018-05-27 11:57:55 973] UART Recv: @3[
 150.8600       69
 150.8800       82
]

0A203135302E383630302020202020202036390D0A203135302E383830302020202020202038320D
[2018-05-27 11:57:55 973] CountDown start[0,42]

[2018-05-27 11:57:56 097] UART Recv: @3[
 150.9000       78
 150.9200       87
]

0A203135302E393030302020202020202037380D0A203135302E393230302020202020202038370D
[2018-05-27 11:57:56 097] CountDown start[0,42]

[2018-05-27 11:57:56 207] CountDown[0,42]

[2018-05-27 11:57:56 222] UART Recv: @3[
 150.9400       85
 150.9600       79
]

0A203135302E393430302020202020202038350D0A203135302E393630302020202020202037390D
[2018-05-27 11:57:56 222] CountDown start[0,42]

[2018-05-27 11:57:56 363] UART Recv: @3[
 150.9800       66
 151.0000       82
]

0A203135302E393830302020202020202036360D0A203135312E303030302020202020202038320D
[2018-05-27 11:57:56 363] CountDown start[0,42]

[2018-05-27 11:57:56 487] UART Recv: @3[
 151.0200       83
 151.0400       86
]

0A203135312E303230302020202020202038330D0A203135312E303430302020202020202038360D
[2018-05-27 11:57:56 487] CountDown start[0,42]

[2018-05-27 11:57:56 612] UART Recv: @3[
 151.0600       79
 151.0800       90
]

0A203135312E303630302020202020202037390D0A203135312E303830302020202020202039300D
[2018-05-27 11:57:56 612] CountDown start[0,42]

[2018-05-27 11:57:56 737] UART Recv: @3[
 151.1000       87
 151.1200       87
]

0A203135312E313030302020202020202038370D0A203135312E313230302020202020202038370D
[2018-05-27 11:57:56 737] CountDown start[0,42]

[2018-05-27 11:57:56 862] UART Recv: @3[
 151.1400       85
 151.1600       85
]

0A203135312E313430302020202020202038350D0A203135312E313630302020202020202038350D
[2018-05-27 11:57:56 862] CountDown start[0,42]

[2018-05-27 11:57:57 018] UART Recv: @3[
 151.1800       67
 151.2000       88
]

0A203135312E313830302020202020202036370D0A203135312E323030302020202020202038380D
[2018-05-27 11:57:57 018] CountDown start[0,42]

[2018-05-27 11:57:57 143] UART Recv: @3[
 151.2200       81
 151.2400       84
]

0A203135312E323230302020202020202038310D0A203135312E323430302020202020202038340D
[2018-05-27 11:57:57 143] CountDown start[0,42]

[2018-05-27 11:57:57 221] CountDown[0,42]

[2018-05-27 11:57:57 267] UART Recv: @3[
 151.2600       98
 151.2800       80
]

0A203135312E323630302020202020202039380D0A203135312E323830302020202020202038300D
[2018-05-27 11:57:57 267] CountDown start[0,42]

[2018-05-27 11:57:57 392] UART Recv: @3[
 151.3000       86
 151.3200       92
]

0A203135312E333030302020202020202038360D0A203135312E333230302020202020202039320D
[2018-05-27 11:57:57 392] CountDown start[0,42]

[2018-05-27 11:57:57 517] UART Recv: @3[
 151.3400       79
 151.3600       97
]

0A203135312E333430302020202020202037390D0A203135312E333630302020202020202039370D
[2018-05-27 11:57:57 517] CountDown start[0,42]

[2018-05-27 11:57:57 657] UART Recv: @3[
 151.3800       93
 151.4000      100
]

0A203135312E333830302020202020202039330D0A203135312E343030302020202020203130300D
[2018-05-27 11:57:57 657] CountDown start[0,42]

[2018-05-27 11:57:57 782] UART Recv: @3[
 151.4200       85
 151.4400      105
]

0A203135312E343230302020202020202038350D0A203135312E343430302020202020203130350D
[2018-05-27 11:57:57 782] CountDown start[0,42]

[2018-05-27 11:57:57 907] UART Recv: @3[
 151.4600       79
 151.4800      102
]

0A203135312E343630302020202020202037390D0A203135312E343830302020202020203130320D
[2018-05-27 11:57:57 907] CountDown start[0,42]

[2018-05-27 11:57:58 032] UART Recv: @3[
 151.5000      102
 151.5200       97
]

0A203135312E353030302020202020203130320D0A203135312E353230302020202020202039370D
[2018-05-27 11:57:58 032] CountDown start[0,42]

[2018-05-27 11:57:58 172] UART Recv: @3[
 151.5400      110
 151.5600       88
]

0A203135312E353430302020202020203131300D0A203135312E353630302020202020202038380D
[2018-05-27 11:57:58 172] CountDown start[0,42]

[2018-05-27 11:57:58 235] CountDown[0,42]

[2018-05-27 11:57:58 313] UART Recv: @3[
 151.5800      102
 151.6000       99
]

0A203135312E353830302020202020203130320D0A203135312E363030302020202020202039390D
[2018-05-27 11:57:58 313] CountDown start[0,42]

[2018-05-27 11:57:58 437] UART Recv: @3[
 151.6200       99
 151.6400      100
]

0A203135312E363230302020202020202039390D0A203135312E363430302020202020203130300D
[2018-05-27 11:57:58 437] CountDown start[0,42]

[2018-05-27 11:57:58 562] UART Recv: @3[
 151.6600      102
 151.6800       95
]

0A203135312E363630302020202020203130320D0A203135312E363830302020202020202039350D
[2018-05-27 11:57:58 562] CountDown start[0,42]

[2018-05-27 11:57:58 687] UART Recv: @3[
 151.7000      104
 151.7200      118
]

0A203135312E373030302020202020203130340D0A203135312E373230302020202020203131380D
[2018-05-27 11:57:58 687] CountDown start[0,42]

[2018-05-27 11:57:58 812] UART Recv: @3[
 151.7400      101
 151.7600      121
]

0A203135312E373430302020202020203130310D0A203135312E373630302020202020203132310D
[2018-05-27 11:57:58 812] CountDown start[0,42]

[2018-05-27 11:57:58 952] UART Recv: @3[
 151.7800       94
 151.8000      105
]

0A203135312E373830302020202020202039340D0A203135312E383030302020202020203130350D
[2018-05-27 11:57:58 952] CountDown start[0,42]

[2018-05-27 11:57:59 077] UART Recv: @3[
 151.8200       97
 151.8400      107
]

0A203135312E383230302020202020202039370D0A203135312E383430302020202020203130370D
[2018-05-27 11:57:59 077] CountDown start[0,42]

[2018-05-27 11:57:59 202] UART Recv: @3[
 151.8600      111
 151.8800      100
]

0A203135312E383630302020202020203131310D0A203135312E383830302020202020203130300D
[2018-05-27 11:57:59 202] CountDown start[0,42]

[2018-05-27 11:57:59 249] CountDown[0,42]

[2018-05-27 11:57:59 327] UART Recv: @3[
 151.9000      120
 151.9200       91
]

0A203135312E393030302020202020203132300D0A203135312E393230302020202020202039310D
[2018-05-27 11:57:59 327] CountDown start[0,42]

[2018-05-27 11:57:59 467] UART Recv: @3[
 151.9400      109
 151.9600      112
]

0A203135312E393430302020202020203130390D0A203135312E393630302020202020203131320D
[2018-05-27 11:57:59 467] CountDown start[0,42]

[2018-05-27 11:57:59 607] UART Recv: @3[
 151.9800      113
 152.0000      138
]

0A203135312E393830302020202020203131330D0A203135322E303030302020202020203133380D
[2018-05-27 11:57:59 607] CountDown start[0,42]

[2018-05-27 11:57:59 732] UART Recv: @3[
 152.0200      120
 152.0400      121
]

0A203135322E303230302020202020203132300D0A203135322E303430302020202020203132310D
[2018-05-27 11:57:59 732] CountDown start[0,42]

[2018-05-27 11:57:59 857] UART Recv: @3[
 152.0600      108
 152.0800       96
]

0A203135322E303630302020202020203130380D0A203135322E303830302020202020202039360D
[2018-05-27 11:57:59 857] CountDown start[0,42]

[2018-05-27 11:57:59 982] UART Recv: @3[
 152.1000      121
 152.1200      131
]

0A203135322E313030302020202020203132310D0A203135322E313230302020202020203133310D
[2018-05-27 11:57:59 982] CountDown start[0,42]

[2018-05-27 11:58:00 107] UART Recv: @3[
 152.1400      135
 152.1600      141
]

0A203135322E313430302020202020203133350D0A203135322E313630302020202020203134310D
[2018-05-27 11:58:00 107] CountDown start[0,42]

[2018-05-27 11:58:00 247] UART Recv: @3[
 152.1800      115
 152.2000      145
]

0A203135322E313830302020202020203131350D0A203135322E323030302020202020203134350D
[2018-05-27 11:58:00 247] CountDown start[0,42]

[2018-05-27 11:58:00 263] CountDown[0,42]

[2018-05-27 11:58:00 372] UART Recv: @3[
 152.2200      139
 152.2400      143
]

0A203135322E323230302020202020203133390D0A203135322E323430302020202020203134330D
[2018-05-27 11:58:00 372] CountDown start[0,42]

[2018-05-27 11:58:00 497] UART Recv: @3[
 152.2600      134
 152.2800      134
]

0A203135322E323630302020202020203133340D0A203135322E323830302020202020203133340D
[2018-05-27 11:58:00 497] CountDown start[0,42]

[2018-05-27 11:58:00 637] UART Recv: @3[
 152.3000      114
 152.3200      138
]

0A203135322E333030302020202020203131340D0A203135322E333230302020202020203133380D
[2018-05-27 11:58:00 637] CountDown start[0,42]

[2018-05-27 11:58:00 762] UART Recv: @3[
 152.3400      139
 152.3600      110
]

0A203135322E333430302020202020203133390D0A203135322E333630302020202020203131300D
[2018-05-27 11:58:00 762] CountDown start[0,42]

[2018-05-27 11:58:00 902] UART Recv: @3[
 152.3800      115
 152.4000      158
]

0A203135322E333830302020202020203131350D0A203135322E343030302020202020203135380D
[2018-05-27 11:58:00 902] CountDown start[0,42]

[2018-05-27 11:58:01 027] UART Recv: @3[
 152.4200      154
 152.4400      157
]

0A203135322E343230302020202020203135340D0A203135322E343430302020202020203135370D
[2018-05-27 11:58:01 027] CountDown start[0,42]

[2018-05-27 11:58:01 152] UART Recv: @3[
 152.4600      129
 152.4800      142
]

0A203135322E343630302020202020203132390D0A203135322E343830302020202020203134320D
[2018-05-27 11:58:01 152] CountDown start[0,42]

[2018-05-27 11:58:01 277] CountDown[0,42]

[2018-05-27 11:58:01 277] UART Recv: @3[
 152.5000      174
C=]

0A203135322E353030302020202020203137340D0A433D
[2018-05-27 11:58:01 277] CountDown start[0,42]

[2018-05-27 11:58:01 932] Python Cmd: [python D:\PCTool\XRD_Tool\XRD_Tool\bin\Debug\CurveFittingPearson_20180526.py 1 D:\PCTool\XRD_Tool\XRD_Tool\bin\Debug\SDD_sample_name_01234_Psi-0_20180527-115744.txt 0 > D:\PCTool\XRD_Tool\XRD_Tool\bin\Debug\CalcResult.py]

[2018-05-27 11:58:01 932] Python Result: [152.647,153.315,3.67611,0.228242,3.67611]

[2018-05-27 11:58:01 932] UART Send: [STA15
]

53544131350D
[2018-05-27 11:58:02 057] UART Recv: @3[STA15
]

53544131350D
[2018-05-27 11:58:02 291] CountDown[0,42]

[2018-05-27 11:58:03 305] CountDown[1,42]

[2018-05-27 11:58:04 319] CountDown[2,42]

[2018-05-27 11:58:05 333] CountDown[3,42]

[2018-05-27 11:58:06 347] CountDown[4,42]

[2018-05-27 11:58:07 361] CountDown[5,42]

[2018-05-27 11:58:07 797] UART Recv: @3[
C=  15.0000
C=]

0A433D202031352E303030300D0A433D
[2018-05-27 11:58:07 797] UART Send: [SAN147.5
]

53414E3134372E350D
[2018-05-27 11:58:07 922] UART Recv: @3[SAN147.5
]

53414E3134372E350D
[2018-05-27 11:58:08 375] CountDown[6,42]

[2018-05-27 11:58:09 170] UART Recv: @3[
C=]

0A433D
[2018-05-27 11:58:09 170] UART Send: [SKM25 30
]

534B4D32352033300D
[2018-05-27 11:58:09 311] UART Recv: @3[SKM25 30
]

534B4D32352033300D
[2018-05-27 11:58:09 389] CountDown[7,42]

[2018-05-27 11:58:10 403] CountDown[8,42]

[2018-05-27 11:58:11 417] CountDown[9,42]

[2018-05-27 11:58:12 431] CountDown[10,42]

[2018-05-27 11:58:12 524] UART Recv: @3[
C=]

0A433D
[2018-05-27 11:58:12 524] UART Send: [RKM
]

524B4D0D
[2018-05-27 11:58:12 665] UART Recv: @3[RKM
24.96

30.02
C=]

524B4D0D32342E39360D200D33302E30320D0A433D
[2018-05-27 11:58:12 665] UART Send: [SSC5
]

535343350D
[2018-05-27 11:58:12 805] UART Recv: @3[SSC5
 147.5000       47
 147.5200       48
]

535343350D0A203134372E353030302020202020202034370D0A203134372E353230302020202020202034380D
[2018-05-27 11:58:12 805] CountDown start[0,42]

[2018-05-27 11:58:12 977] UART Recv: @3[
 147.5400       48
 147.5600       59
]

0A203134372E353430302020202020202034380D0A203134372E353630302020202020202035390D
[2018-05-27 11:58:12 977] CountDown start[0,42]

[2018-05-27 11:58:13 101] UART Recv: @3[
 147.5800       52
 147.6000       47
]

0A203134372E353830302020202020202035320D0A203134372E363030302020202020202034370D
[2018-05-27 11:58:13 101] CountDown start[0,42]

[2018-05-27 11:58:13 242] UART Recv: @3[
 147.6200       52
 147.6400       49
]

0A203134372E363230302020202020202035320D0A203134372E363430302020202020202034390D
[2018-05-27 11:58:13 242] CountDown start[0,42]

[2018-05-27 11:58:13 367] UART Recv: @3[
 147.6600       48
 147.6800       43
]

0A203134372E363630302020202020202034380D0A203134372E363830302020202020202034330D
[2018-05-27 11:58:13 367] CountDown start[0,42]

[2018-05-27 11:58:13 445] CountDown[0,42]

[2018-05-27 11:58:13 491] UART Recv: @3[
 147.7000       59
 147.7200       55
]

0A203134372E373030302020202020202035390D0A203134372E373230302020202020202035350D
[2018-05-27 11:58:13 491] CountDown start[0,42]

[2018-05-27 11:58:13 616] UART Recv: @3[
 147.7400       55
 147.7600       52
]

0A203134372E373430302020202020202035350D0A203134372E373630302020202020202035320D
[2018-05-27 11:58:13 616] CountDown start[0,42]

[2018-05-27 11:58:13 757] UART Recv: @3[
 147.7800       55
 147.8000       35
]

0A203134372E373830302020202020202035350D0A203134372E383030302020202020202033350D
[2018-05-27 11:58:13 757] CountDown start[0,42]

[2018-05-27 11:58:13 897] UART Recv: @3[
 147.8200       63
 147.8400       48
]

0A203134372E383230302020202020202036330D0A203134372E383430302020202020202034380D
[2018-05-27 11:58:13 897] CountDown start[0,42]

[2018-05-27 11:58:14 022] UART Recv: @3[
 147.8600       59
 147.8800       53
]

0A203134372E383630302020202020202035390D0A203134372E383830302020202020202035330D
[2018-05-27 11:58:14 022] CountDown start[0,42]

[2018-05-27 11:58:14 147] UART Recv: @3[
 147.9000       46
 147.9200       51
]

0A203134372E393030302020202020202034360D0A203134372E393230302020202020202035310D
[2018-05-27 11:58:14 147] CountDown start[0,42]

[2018-05-27 11:58:14 271] UART Recv: @3[
 147.9400       56
 147.9600       44
]

0A203134372E393430302020202020202035360D0A203134372E393630302020202020202034340D
[2018-05-27 11:58:14 271] CountDown start[0,42]

[2018-05-27 11:58:14 396] UART Recv: @3[
 147.9800       46
 148.0000       57
]

0A203134372E393830302020202020202034360D0A203134382E303030302020202020202035370D
[2018-05-27 11:58:14 396] CountDown start[0,42]

[2018-05-27 11:58:14 459] CountDown[0,42]

[2018-05-27 11:58:14 537] UART Recv: @3[
 148.0200       52
 148.0400       38
]

0A203134382E303230302020202020202035320D0A203134382E303430302020202020202033380D
[2018-05-27 11:58:14 537] CountDown start[0,42]

[2018-05-27 11:58:14 661] UART Recv: @3[
 148.0600       58
 148.0800       58
]

0A203134382E303630302020202020202035380D0A203134382E303830302020202020202035380D
[2018-05-27 11:58:14 661] CountDown start[0,42]

[2018-05-27 11:58:14 786] UART Recv: @3[
 148.1000       51
 148.1200       58
]

0A203134382E313030302020202020202035310D0A203134382E313230302020202020202035380D
[2018-05-27 11:58:14 786] CountDown start[0,42]

[2018-05-27 11:58:14 911] UART Recv: @3[
 148.1400       61
 148.1600       57
]

0A203134382E313430302020202020202036310D0A203134382E313630302020202020202035370D
[2018-05-27 11:58:14 911] CountDown start[0,42]

[2018-05-27 11:58:15 051] UART Recv: @3[
 148.1800       55
 148.2000       53
]

0A203134382E313830302020202020202035350D0A203134382E323030302020202020202035330D
[2018-05-27 11:58:15 051] CountDown start[0,42]

[2018-05-27 11:58:15 192] UART Recv: @3[
 148.2200       59
 148.2400       49
]

0A203134382E323230302020202020202035390D0A203134382E323430302020202020202034390D
[2018-05-27 11:58:15 192] CountDown start[0,42]

[2018-05-27 11:58:15 317] UART Recv: @3[
 148.2600       56
 148.2800       51
]

0A203134382E323630302020202020202035360D0A203134382E323830302020202020202035310D
[2018-05-27 11:58:15 317] CountDown start[0,42]

[2018-05-27 11:58:15 441] UART Recv: @3[
 148.3000       55
 148.3200       64
]

0A203134382E333030302020202020202035350D0A203134382E333230302020202020202036340D
[2018-05-27 11:58:15 441] CountDown start[0,42]

[2018-05-27 11:58:15 473] CountDown[0,42]

[2018-05-27 11:58:15 566] UART Recv: @3[
 148.3400       58
 148.3600       61
]

0A203134382E333430302020202020202035380D0A203134382E333630302020202020202036310D
[2018-05-27 11:58:15 566] CountDown start[0,42]

[2018-05-27 11:58:15 691] UART Recv: @3[
 148.3800       55
 148.4000       59
]

0A203134382E333830302020202020202035350D0A203134382E343030302020202020202035390D
[2018-05-27 11:58:15 691] CountDown start[0,42]

[2018-05-27 11:58:15 831] UART Recv: @3[
 148.4200       59
 148.4400       64
]

0A203134382E343230302020202020202035390D0A203134382E343430302020202020202036340D
[2018-05-27 11:58:15 831] CountDown start[0,42]

[2018-05-27 11:58:15 956] UART Recv: @3[
 148.4600       70
 148.4800       48
]

0A203134382E343630302020202020202037300D0A203134382E343830302020202020202034380D
[2018-05-27 11:58:15 956] CountDown start[0,42]

[2018-05-27 11:58:16 081] UART Recv: @3[
 148.5000       51
 148.5200       52
]

0A203134382E353030302020202020202035310D0A203134382E353230302020202020202035320D
[2018-05-27 11:58:16 081] CountDown start[0,42]

[2018-05-27 11:58:16 221] UART Recv: @3[
 148.5400       68
 148.5600       54
]

0A203134382E353430302020202020202036380D0A203134382E353630302020202020202035340D
[2018-05-27 11:58:16 221] CountDown start[0,42]

[2018-05-27 11:58:16 346] UART Recv: @3[
 148.5800       48
 148.6000       56
]

0A203134382E353830302020202020202034380D0A203134382E363030302020202020202035360D
[2018-05-27 11:58:16 346] CountDown start[0,42]

[2018-05-27 11:58:16 487] CountDown[0,42]

[2018-05-27 11:58:16 487] UART Recv: @3[
 148.6200       71
 148.6400       57
]

0A203134382E363230302020202020202037310D0A203134382E363430302020202020202035370D
[2018-05-27 11:58:16 487] CountDown start[0,42]

[2018-05-27 11:58:16 611] UART Recv: @3[
 148.6600       58
 148.6800       56
]

0A203134382E363630302020202020202035380D0A203134382E363830302020202020202035360D
[2018-05-27 11:58:16 611] CountDown start[0,42]

[2018-05-27 11:58:16 736] UART Recv: @3[
 148.7000       63
 148.7200       53
]

0A203134382E373030302020202020202036330D0A203134382E373230302020202020202035330D
[2018-05-27 11:58:16 736] CountDown start[0,42]

[2018-05-27 11:58:16 861] UART Recv: @3[
 148.7400       66
 148.7600       59
]

0A203134382E373430302020202020202036360D0A203134382E373630302020202020202035390D
[2018-05-27 11:58:16 861] CountDown start[0,42]

[2018-05-27 11:58:16 986] UART Recv: @3[
 148.7800       70
 148.8000       50
]

0A203134382E373830302020202020202037300D0A203134382E383030302020202020202035300D
[2018-05-27 11:58:16 986] CountDown start[0,42]

[2018-05-27 11:58:17 126] UART Recv: @3[
 148.8200       56
 148.8400       58
]

0A203134382E383230302020202020202035360D0A203134382E383430302020202020202035380D
[2018-05-27 11:58:17 126] CountDown start[0,42]

[2018-05-27 11:58:17 251] UART Recv: @3[
 148.8600       45
 148.8800       54
]

0A203134382E383630302020202020202034350D0A203134382E383830302020202020202035340D
[2018-05-27 11:58:17 251] CountDown start[0,42]

[2018-05-27 11:58:17 376] UART Recv: @3[
 148.9000       54
 148.9200       61
]

0A203134382E393030302020202020202035340D0A203134382E393230302020202020202036310D
[2018-05-27 11:58:17 376] CountDown start[0,42]

[2018-05-27 11:58:17 501] CountDown[0,42]

[2018-05-27 11:58:17 516] UART Recv: @3[
 148.9400       75
 148.9600       46
]

0A203134382E393430302020202020202037350D0A203134382E393630302020202020202034360D
[2018-05-27 11:58:17 516] CountDown start[0,42]

[2018-05-27 11:58:17 641] UART Recv: @3[
 148.9800       65
 149.0000       52
]

0A203134382E393830302020202020202036350D0A203134392E303030302020202020202035320D
[2018-05-27 11:58:17 641] CountDown start[0,42]

[2018-05-27 11:58:17 781] UART Recv: @3[
 149.0200       45
 149.0400       63
]

0A203134392E303230302020202020202034350D0A203134392E303430302020202020202036330D
[2018-05-27 11:58:17 781] CountDown start[0,42]

[2018-05-27 11:58:17 906] UART Recv: @3[
 149.0600       46
 149.0800       47
]

0A203134392E303630302020202020202034360D0A203134392E303830302020202020202034370D
[2018-05-27 11:58:17 906] CountDown start[0,42]

[2018-05-27 11:58:18 031] UART Recv: @3[
 149.1000       64
 149.1200       61
]

0A203134392E313030302020202020202036340D0A203134392E313230302020202020202036310D
[2018-05-27 11:58:18 031] CountDown start[0,42]

[2018-05-27 11:58:18 156] UART Recv: @3[
 149.1400       71
 149.1600       64
]

[...]
[2018-05-27 22:48:44 690] Exception[System.InvalidOperationException: Cross-thread operation not valid: Control 'FormDeviceInit' accessed from a thread other than the thread it was created on.
   at System.Windows.Forms.Control.get_Handle()
   at System.Windows.Forms.Control.SetVisibleCore(Boolean value)
   at System.Windows.Forms.Form.SetVisibleCore(Boolean value)
   at System.Windows.Forms.Control.Hide()
   at XRD_Tool.FormDeviceInit.DetectorInitFinish() in d:\PCTool\XRD_Tool_20180527_2100\XRD_Tool\XRD_Tool\FormDeviceInit.cs:line 240]

[2018-05-27 22:49:08 496] UART Send: [
]

0D
[2018-05-27 22:49:08 632] UART Recv: @1[
C=]

0D0A433D
[2018-05-27 22:49:08 636] UART Send: [RFF
]

5246460D
[2018-05-27 22:49:08 769] UART Recv: @1[RFF
++101
C=]

5246460D0A2B2B3130310D0A433D
[2018-05-27 22:49:08 771] UART Send: [RKM
]

524B4D0D
[2018-05-27 22:49:08 897] UART Recv: @1[RKM
00.00

00.00
C=]

524B4D0D30302E30300D200D30302E30300D0A433D
[2018-05-27 22:49:10 544] Exception[System.FormatException: String was not recognized as a valid DateTime.
   at System.DateTimeParse.Parse(String s, DateTimeFormatInfo dtfi, DateTimeStyles styles)
   at System.Convert.ToDateTime(String value)
   at XRD_Tool.FormDeviceInit.WarmUpCheck() in d:\PCTool\XRD_Tool_20180527_2100\XRD_Tool\XRD_Tool\FormDeviceInit.cs:line 492]

[2018-05-27 22:49:10 545] UART Send: [PAR
]

5041520D
[2018-05-27 22:49:10 673] UART Recv: @1[PAR
LWL30
UPL75
SPE0.02
STP0.02
INT0.05
MXN10
MXT1
MXS0.005
MOD3
WAV1.48564
TSZ 45.3500
TDZ 19.3150

C=]

5041520D0A4C574C33300D0A55504C37350D0A535045302E30320D0A535450302E30320D0A494E54302E30350D0A4D584E31300D0A4D5854310D0A4D5853302E3030350D0A4D4F44330D0A574156312E34383536340D0A54535A2034352E333530300D0A54445A2031392E333135300D0A0A433D
[2018-05-27 22:49:10 679] UART Send: [PAF
]

5041460D
[2018-05-27 22:49:10 799] UART Recv: @1[PAF
]

5041460D
[2018-05-27 22:49:11 086] UART Recv: @1[
ZTA-003.3647

ZTB-001.1079

ZTX-035.0000

ZTY-050.3295

ZTZ-005.0000

STP000.0200

INT001.0000

SPE0048

C=]

0A5A54412D3030332E333634370D0A0A5A54422D3030312E313037390D0A0A5A54582D3033352E303030300D0A0A5A54592D3035302E333239350D0A0A5A545A2D3030352E303030300D0A0A5354503030302E303230300D0A0A494E543030312E303030300D0A0A535045303034380D0A0A433D
[2018-05-27 22:49:11 090] UART Send: [SDP2
]

534450320D
[2018-05-27 22:49:11 214] UART Recv: @1[SDP2
]

534450320D
[2018-05-27 22:49:11 357] UART Recv: @1[
C=]

0A433D
[2018-05-27 22:49:13 791] TCP Send: [-reset]

2D7265736574
[2018-05-27 22:49:16 391] TCP Recv: []

00000000
[2018-05-27 22:49:16 395] TCP Send: [-settings Cr]

2D73657474696E6773204372
[2018-05-27 22:49:16 795] TCP Recv: []

00000000
[2018-05-27 22:54:44 475] UART Send: [
]

0D
[2018-05-27 22:54:44 645] UART Recv: @1[
C=]

0D0A433D
[2018-05-27 22:54:44 653] UART Send: [RFF
]

5246460D
[2018-05-27 22:54:44 777] UART Recv: @1[RFF
++101
C=]

5246460D0A2B2B3130310D0A433D
[2018-05-27 22:54:44 778] UART Send: [RKM
]

524B4D0D
[2018-05-27 22:54:44 905] UART Recv: @1[RKM
00.00

00.00
C=]

524B4D0D30302E30300D200D30302E30300D0A433D
[2018-05-27 22:56:19 210] UART Send: [
]

0D
[2018-05-27 22:56:19 350] UART Recv: @1[
C=]

0D0A433D
[2018-05-27 22:56:19 355] UART Send: [RFF
]

5246460D
[2018-05-27 22:56:19 486] UART Recv: @1[RFF
++101
C=]

5246460D0A2B2B3130310D0A433D
[2018-05-27 22:56:19 488] UART Send: [RKM
]

524B4D0D
[2018-05-27 22:56:19 624] UART Recv: @1[RKM
00.00

00.00
C=]

524B4D0D30302E30300D200D30302E30300D0A433D
[2018-05-27 22:56:21 318] Exception[System.FormatException: String was not recognized as a valid DateTime.
   at System.DateTimeParse.Parse(String s, DateTimeFormatInfo dtfi, DateTimeStyles styles)
   at System.Convert.ToDateTime(String value)
   at XRD_Tool.FormDeviceInit.WarmUpCheck() in d:\PCTool\XRD_Tool_20180527_2100\XRD_Tool\XRD_Tool\FormDeviceInit.cs:line 494]

[2018-05-27 22:56:21 319] UART Send: [PAR
]

5041520D
[2018-05-27 22:56:21 448] UART Recv: @1[PAR
LWL30
UPL75
SPE0.02
STP0.02
INT0.05
MXN10
MXT1
MXS0.005
MOD3
WAV1.48564
TSZ 45.3500
TDZ 19.3150

C=]

5041520D0A4C574C33300D0A55504C37350D0A535045302E30320D0A535450302E30320D0A494E54302E30350D0A4D584E31300D0A4D5854310D0A4D5853302E3030350D0A4D4F44330D0A574156312E34383536340D0A54535A2034352E333530300D0A54445A2031392E333135300D0A0A433D
[2018-05-27 22:56:21 451] UART Send: [PAF
]

5041460D
[2018-05-27 22:56:21 573] UART Recv: @1[PAF
]

5041460D
[2018-05-27 22:56:21 862] UART Recv: @1[
ZTA-003.3647

ZTB-001.1079

ZTX-035.0000

ZTY-050.3295

ZTZ-005.0000

STP000.0200

INT001.0000

SPE0048

C=]

0A5A54412D3030332E333634370D0A0A5A54422D3030312E313037390D0A0A5A54582D3033352E303030300D0A0A5A54592D3035302E333239350D0A0A5A545A2D3030352E303030300D0A0A5354503030302E303230300D0A0A494E543030312E303030300D0A0A535045303034380D0A0A433D
[2018-05-27 22:56:21 863] UART Send: [SDP2
]

534450320D
[2018-05-27 22:56:21 989] UART Recv: @1[SDP2
]

534450320D
[2018-05-27 22:56:22 132] UART Recv: @1[
C=]

0A433D
[2018-05-27 22:56:23 820] TCP Send: [-reset]

2D7265736574
[2018-05-27 22:56:26 423] TCP Recv: []

00000000
[2018-05-27 22:56:26 427] TCP Send: [-settings Cr]

2D73657474696E6773204372
[2018-05-27 22:56:26 828] TCP Recv: []

00000000
[2018-05-27 22:56:33 044] Exception[System.ArgumentOutOfRangeException: InvalidArgument=Value of '-2' is not valid for 'SelectedIndex'.
Parameter name: SelectedIndex
   at System.Windows.Forms.ComboBox.set_SelectedIndex(Int32 value)
   at XRD_Tool.FormChildMeasure.updateControls() in d:\PCTool\XRD_Tool_20180527_2100\XRD_Tool\XRD_Tool\FormChildMeasure.cs:line 282
   at XRD_Tool.FormChildMeasure.FormChildMea_Load(Object sender, EventArgs e) in d:\PCTool\XRD_Tool_20180527_2100\XRD_Tool\XRD_Tool\FormChildMeasure.cs:line 96]

[2018-05-27 22:57:50 993] UART Send: [
]

0D
[2018-05-27 22:57:51 164] UART Recv: @1[
C=]

0D0A433D
[2018-05-27 22:57:51 169] UART Send: [RFF
]

5246460D
[2018-05-27 22:57:51 290] UART Recv: @1[RFF
++101
C=]

5246460D0A2B2B3130310D0A433D
[2018-05-27 22:57:51 291] UART Send: [RKM
]

524B4D0D
[2018-05-27 22:57:51 418] UART Recv: @1[RKM
00.00

00.00
C=]

524B4D0D30302E30300D200D30302E30300D0A433D
[2018-05-27 22:58:08 639] UART Send: [
]

0D
[2018-05-27 22:58:08 784] UART Recv: @1[
C=]

0D0A433D
[2018-05-27 22:58:08 787] UART Send: [RFF
]

5246460D
[2018-05-27 22:58:08 910] UART Recv: @1[RFF
++101
C=]

5246460D0A2B2B3130310D0A433D
[2018-05-27 22:58:08 911] UART Send: [RKM
]

524B4D0D
[2018-05-27 22:58:09 038] UART Recv: @1[RKM
00.00

00.00
C=]

524B4D0D30302E30300D200D30302E30300D0A433D
[2018-05-27 23:01:00 143] UART Send: [
]

0D
[2018-05-27 23:01:00 286] UART Recv: @1[
C=]

0D0A433D
[2018-05-27 23:01:00 288] UART Send: [RFF
]

5246460D
[2018-05-27 23:01:00 418] UART Recv: @1[RFF
++101
C=]

5246460D0A2B2B3130310D0A433D
[2018-05-27 23:01:00 419] UART Send: [RKM
]

524B4D0D
[2018-05-27 23:01:00 546] UART Recv: @1[RKM
00.00

00.00
C=]

524B4D0D30302E30300D200D30302E30300D0A433D
[2018-05-27 23:01:26 313] UART Send: [
]

0D
[2018-05-27 23:01:26 437] UART Recv: @1[
C=]

0D0A433D
[2018-05-27 23:01:26 440] UART Send: [RFF
]

5246460D
[2018-05-27 23:01:26 576] UART Recv: @1[RFF
++101
C=]

5246460D0A2B2B3130310D0A433D
[2018-05-27 23:01:26 577] UART Send: [RKM
]

524B4D0D
[2018-05-27 23:01:26 704] UART Recv: @1[RKM
00.00

00.00
C=]

524B4D0D30302E30300D200D30302E30300D0A433D
[2018-05-27 23:01:27 771] Exception[System.FormatException: String was not recognized as a valid DateTime.
   at System.DateTimeParse.Parse(String s, DateTimeFormatInfo dtfi, DateTimeStyles styles)
   at System.Convert.ToDateTime(String value)
   at XRD_Tool.FormDeviceInit.WarmUpCheck() in d:\PCTool\XRD_Tool_20180527_2100\XRD_Tool\XRD_Tool\FormDeviceInit.cs:line 494]

[2018-05-27 23:01:27 772] UART Send: [PAR
]

5041520D
[2018-05-27 23:01:27 903] UART Recv: @1[PAR
LWL30
UPL75
SPE0.02
STP0.02
INT0.05
MXN10
MXT1
MXS0.005
MOD3
WAV1.48564
TSZ 45.3500
TDZ 19.3150

C=]

5041520D0A4C574C33300D0A55504C37350D0A535045302E30320D0A535450302E30320D0A494E54302E30350D0A4D584E31300D0A4D5854310D0A4D5853302E3030350D0A4D4F44330D0A574156312E34383536340D0A54535A2034352E333530300D0A54445A2031392E333135300D0A0A433D
[2018-05-27 23:01:27 904] UART Send: [PAF
]

5041460D
[2018-05-27 23:01:28 031] UART Recv: @1[PAF
]

5041460D
[2018-05-27 23:01:28 318] UART Recv: @1[
ZTA-003.3647

ZTB-001.1079

ZTX-035.0000

ZTY-050.3295

ZTZ-005.0000

STP000.0200

INT001.0000

SPE0048

C=]

0A5A54412D3030332E333634370D0A0A5A54422D3030312E313037390D0A0A5A54582D3033352E303030300D0A0A5A54592D3035302E333239350D0A0A5A545A2D3030352E303030300D0A0A5354503030302E303230300D0A0A494E543030312E303030300D0A0A535045303034380D0A0A433D
[2018-05-27 23:01:28 319] UART Send: [SDP2
]

534450320D
[2018-05-27 23:01:28 445] UART Recv: @1[SDP2
]

534450320D
[2018-05-27 23:01:28 590] UART Recv: @1[
C=]

0A433D
[2018-05-27 23:01:29 290] TCP Send: [-reset]

2D7265736574
[2018-05-27 23:01:31 890] TCP Recv: []

00000000
[2018-05-27 23:01:31 893] TCP Send: [-settings Cr]

2D73657474696E6773204372
[2018-05-27 23:01:32 294] TCP Recv: []

00000000
[2018-05-27 23:05:26 175] UART Send: [
]

0D
[2018-05-27 23:05:26 296] UART Recv: @1[
C=]

0D0A433D
[2018-05-27 23:05:26 302] UART Send: [RFF
]

5246460D
[2018-05-27 23:05:26 437] UART Recv: @1[RFF
++101
C=]

5246460D0A2B2B3130310D0A433D
[2018-05-27 23:05:26 438] UART Send: [RKM
]

524B4D0D
[2018-05-27 23:05:26 565] UART Recv: @1[RKM
00.00

00.00
C=]

524B4D0D30302E30300D200D30302E30300D0A433D
[2018-05-27 23:05:27 845] Exception[System.FormatException: String was not recognized as a valid DateTime.
   at System.DateTimeParse.Parse(String s, DateTimeFormatInfo dtfi, DateTimeStyles styles)
   at System.Convert.ToDateTime(String value)
   at XRD_Tool.FormDeviceInit.WarmUpCheck() in d:\PCTool\XRD_Tool_20180527_2100\XRD_Tool\XRD_Tool\FormDeviceInit.cs:line 494]

[2018-05-27 23:05:27 846] UART Send: [PAR
]

5041520D
[2018-05-27 23:05:27 972] UART Recv: @1[PAR
LWL30
UPL75
SPE0.02
STP0.02
INT0.05
MXN10
MXT1
MXS0.005
MOD3
WAV1.48564
TSZ 45.3500
TDZ 19.3150

C=]

5041520D0A4C574C33300D0A55504C37350D0A535045302E30320D0A535450302E30320D0A494E54302E30350D0A4D584E31300D0A4D5854310D0A4D5853302E3030350D0A4D4F44330D0A574156312E34383536340D0A54535A2034352E333530300D0A54445A2031392E333135300D0A0A433D
[2018-05-27 23:05:27 973] UART Send: [PAF
]

5041460D
[2018-05-27 23:05:28 105] UART Recv: @1[PAF
]

5041460D
[2018-05-27 23:05:28 387] UART Recv: @1[
ZTA-003.3647

ZTB-001.1079

ZTX-035.0000

ZTY-050.3295

ZTZ-005.0000

STP000.0200

INT001.0000

SPE0048

C=]

0A5A54412D3030332E333634370D0A0A5A54422D3030312E313037390D0A0A5A54582D3033352E303030300D0A0A5A54592D3035302E333239350D0A0A5A545A2D3030352E303030300D0A0A5354503030302E303230300D0A0A494E543030312E303030300D0A0A535045303034380D0A0A433D
[2018-05-27 23:05:28 390] UART Send: [SDP2
]

534450320D
[2018-05-27 23:05:28 515] UART Recv: @1[SDP2
]

534450320D
[2018-05-27 23:05:28 659] UART Recv: @1[
C=]

0A433D
[2018-05-27 23:05:30 140] TCP Send: [-reset]

2D7265736574
[2018-05-27 23:10:24 621] UART Send: [
]

0D
[2018-05-27 23:10:24 755] UART Recv: @1[
C=]

0D0A433D
[2018-05-27 23:10:24 757] UART Send: [RFF
]

5246460D
[2018-05-27 23:10:24 891] UART Recv: @1[RFF
++101
C=]

5246460D0A2B2B3130310D0A433D
[2018-05-27 23:10:24 893] UART Send: [RKM
]

524B4D0D
[2018-05-27 23:10:25 019] UART Recv: @1[RKM
00.00

00.00
C=]

524B4D0D30302E30300D200D30302E30300D0A433D
[2018-05-27 23:10:25 807] Exception[System.FormatException: String was not recognized as a valid DateTime.
   at System.DateTimeParse.Parse(String s, DateTimeFormatInfo dtfi, DateTimeStyles styles)
   at System.Convert.ToDateTime(String value)
   at XRD_Tool.FormDeviceInit.WarmUpCheck() in d:\PCTool\XRD_Tool_20180527_2100\XRD_Tool\XRD_Tool\FormDeviceInit.cs:line 494]

[2018-05-27 23:10:25 809] UART Send: [PAR
]

5041520D
[2018-05-27 23:10:25 931] UART Recv: @1[PAR
LWL30
UPL75
SPE0.02
STP0.02
INT0.05
MXN10
MXT1
MXS0.005
MOD3
WAV1.48564
TSZ 45.3500
TDZ 19.3150

C=]

5041520D0A4C574C33300D0A55504C37350D0A535045302E30320D0A535450302E30320D0A494E54302E30350D0A4D584E31300D0A4D5854310D0A4D5853302E3030350D0A4D4F44330D0A574156312E34383536340D0A54535A2034352E333530300D0A54445A2031392E333135300D0A0A433D
[2018-05-27 23:10:25 934] UART Send: [PAF
]

5041460D
[2018-05-27 23:10:26 058] UART Recv: @1[PAF
]

5041460D
[2018-05-27 23:10:26 346] UART Recv: @1[
ZTA-003.3647

ZTB-001.1079

ZTX-035.0000

ZTY-050.3295

ZTZ-005.0000

STP000.0200

INT001.0000

SPE0048

C=]

0A5A54412D3030332E333634370D0A0A5A54422D3030312E313037390D0A0A5A54582D3033352E303030300D0A0A5A54592D3035302E333239350D0A0A5A545A2D3030352E303030300D0A0A5354503030302E303230300D0A0A494E543030312E303030300D0A0A535045303034380D0A0A433D
[2018-05-27 23:10:26 349] UART Send: [SDP2
]

534450320D
[2018-05-27 23:10:26 473] UART Recv: @1[SDP2
]

534450320D
[2018-05-27 23:10:26 616] UART Recv: @1[
C=]

0A433D
[2018-05-27 23:10:27 187] TCP Send: [-reset]

2D7265736574
[2018-05-27 23:10:29 797] TCP Send: [-settings Cr]

2D73657474696E6773204372
[2018-05-27 23:28:02 963] UART Send: [
]

0D
[2018-05-27 23:28:03 102] UART Recv: @1[
C=]

0D0A433D
[2018-05-27 23:28:03 105] UART Send: [RFF
]

5246460D
[2018-05-27 23:28:03 239] UART Recv: @1[RFF
++101
C=]

5246460D0A2B2B3130310D0A433D
[2018-05-27 23:28:03 241] UART Send: [RKM
]

524B4D0D
[2018-05-27 23:28:03 368] UART Recv: @1[RKM
00.00

00.00
C=]

524B4D0D30302E30300D200D30302E30300D0A433D
[2018-05-27 23:28:05 336] Exception[System.FormatException: String was not recognized as a valid DateTime.
   at System.DateTimeParse.Parse(String s, DateTimeFormatInfo dtfi, DateTimeStyles styles)
   at System.Convert.ToDateTime(String value)
   at XRD_Tool.FormDeviceInit.WarmUpCheck() in d:\PCTool\XRD_Tool_20180527_2100\XRD_Tool\XRD_Tool\FormDeviceInit.cs:line 495]

[2018-05-27 23:28:05 338] UART Send: [PAR
]

5041520D
[2018-05-27 23:28:05 461] UART Recv: @1[PAR
LWL30
UPL75
SPE0.02
STP0.02
INT0.05
MXN10
MXT1
MXS0.005
MOD3
WAV1.48564
TSZ 45.3500
TDZ 19.3150

C=]

5041520D0A4C574C33300D0A55504C37350D0A535045302E30320D0A535450302E30320D0A494E54302E30350D0A4D584E31300D0A4D5854310D0A4D5853302E3030350D0A4D4F44330D0A574156312E34383536340D0A54535A2034352E333530300D0A54445A2031392E333135300D0A0A433D
[2018-05-27 23:28:05 462] UART Send: [PAF
]

5041460D
[2018-05-27 23:28:05 589] UART Recv: @1[PAF
]

5041460D
[2018-05-27 23:28:05 876] UART Recv: @1[
ZTA-003.3647

ZTB-001.1079

ZTX-035.0000

ZTY-050.3295

ZTZ-005.0000

STP000.0200

INT001.0000

SPE0048

C=]

0A5A54412D3030332E333634370D0A0A5A54422D3030312E313037390D0A0A5A54582D3033352E303030300D0A0A5A54592D3035302E333239350D0A0A5A545A2D3030352E303030300D0A0A5354503030302E303230300D0A0A494E543030312E303030300D0A0A535045303034380D0A0A433D
[2018-05-27 23:28:05 878] UART Send: [SDP2
]

534450320D
[2018-05-27 23:28:06 004] UART Recv: @1[SDP2
]

534450320D
[2018-05-27 23:28:06 147] UART Recv: @1[
C=]

0A433D
[2018-05-27 23:28:15 056] TCP Send: [-reset]

2D7265736574
[2018-05-27 23:28:17 659] TCP Send: [-settings Cr]

2D73657474696E6773204372
[2018-05-27 23:28:17 660] TCP Recv: []

00000000
[2018-05-27 23:29:05 369] UART Send: [/
]

2F0D
[2018-05-27 23:29:05 505] UART Recv: @2[
C=]

0D0A433D
[2018-05-27 23:29:06 665] UART Send: [/
]

2F0D
[2018-05-27 23:29:06 798] UART Recv: @2[
C=]

0D0A433D
[2018-05-27 23:29:07 048] UART Send: [/
]

2F0D
[2018-05-27 23:29:07 181] UART Recv: @2[
C=]

0D0A433D
[2018-05-27 23:29:07 224] UART Send: [/
]

2F0D
[2018-05-27 23:29:07 357] UART Recv: @2[
C=]

0D0A433D
[2018-05-27 23:29:28 375] UART Send: [
]

0D
[2018-05-27 23:29:28 522] UART Recv: @1[
C=]

0D0A433D
[2018-05-27 23:29:28 524] UART Send: [RFF
]

5246460D
[2018-05-27 23:29:28 661] UART Recv: @1[RFF
++101
C=]

5246460D0A2B2B3130310D0A433D
[2018-05-27 23:29:28 662] UART Send: [RKM
]

524B4D0D
[2018-05-27 23:29:28 790] UART Recv: @1[RKM
00.00

00.00
C=]

524B4D0D30302E30300D200D30302E30300D0A433D
[2018-05-27 23:29:31 785] Exception[System.FormatException: String was not recognized as a valid DateTime.
   at System.DateTimeParse.Parse(String s, DateTimeFormatInfo dtfi, DateTimeStyles styles)
   at System.Convert.ToDateTime(String value)
   at XRD_Tool.FormDeviceInit.WarmUpCheck() in d:\PCTool\XRD_Tool_20180527_2100\XRD_Tool\XRD_Tool\FormDeviceInit.cs:line 495]

[2018-05-27 23:29:31 785] UART Send: [PAR
]

5041520D
[2018-05-27 23:29:31 907] UART Recv: @1[PAR
LWL30
UPL75
SPE0.02
STP0.02
INT0.05
MXN10
MXT1
MXS0.005
MOD3
WAV1.48564
TSZ 45.3500
TDZ 19.3150

C=]

5041520D0A4C574C33300D0A55504C37350D0A535045302E30320D0A535450302E30320D0A494E54302E30350D0A4D584E31300D0A4D5854310D0A4D5853302E3030350D0A4D4F44330D0A574156312E34383536340D0A54535A2034352E333530300D0A54445A2031392E333135300D0A0A433D
[2018-05-27 23:29:31 909] UART Send: [PAF
]

5041460D
[2018-05-27 23:29:32 034] UART Recv: @1[PAF
]

5041460D
[2018-05-27 23:29:32 322] UART Recv: @1[
ZTA-003.3647

ZTB-001.1079

ZTX-035.0000

ZTY-050.3295

ZTZ-005.0000

STP000.0200

INT001.0000

SPE0048

C=]

0A5A54412D3030332E333634370D0A0A5A54422D3030312E313037390D0A0A5A54582D3033352E303030300D0A0A5A54592D3035302E333239350D0A0A5A545A2D3030352E303030300D0A0A5354503030302E303230300D0A0A494E543030312E303030300D0A0A535045303034380D0A0A433D
[2018-05-27 23:29:32 323] UART Send: [SDP2
]

534450320D
[2018-05-27 23:29:32 449] UART Recv: @1[SDP2
]

534450320D
[2018-05-27 23:29:32 593] UART Recv: @1[
C=]

0A433D
[2018-05-27 23:29:32 607] TCP Send: [-reset]

2D7265736574
[2018-05-27 23:29:35 209] TCP Send: [-settings Cr]

2D73657474696E6773204372
[2018-05-27 23:29:35 210] TCP Recv: []

00000000
[2018-05-27 23:30:45 382] UART Send: [
]

0D
[2018-05-27 23:30:45 507] UART Recv: @1[
C=]

0D0A433D
[2018-05-27 23:30:45 510] UART Send: [RFF
]

5246460D
[2018-05-27 23:30:45 632] UART Recv: @1[RFF
++101
C=]

5246460D0A2B2B3130310D0A433D
[2018-05-27 23:30:45 636] UART Send: [RKM
]

524B4D0D
[2018-05-27 23:30:45 760] UART Recv: @1[RKM
00.00

00.00
C=]

524B4D0D30302E30300D200D30302E30300D0A433D
[2018-05-27 23:31:24 284] UART Send: [/
]

2F0D
[2018-05-27 23:31:24 416] UART Recv: @2[
C=]

0D0A433D
[2018-05-27 23:31:44 304] UART Send: [
]

0D
[2018-05-27 23:31:44 438] UART Recv: @1[
C=]

0D0A433D
[2018-05-27 23:31:44 440] UART Send: [RFF
]

5246460D
[2018-05-27 23:31:44 563] UART Recv: @1[RFF
++101
C=]

5246460D0A2B2B3130310D0A433D
[2018-05-27 23:31:44 565] UART Send: [RKM
]

524B4D0D
[2018-05-27 23:31:44 691] UART Recv: @1[RKM
00.00

00.00
C=]

524B4D0D30302E30300D200D30302E30300D0A433D
[2018-05-27 23:31:46 300] Exception[System.FormatException: String was not recognized as a valid DateTime.
   at System.DateTimeParse.Parse(String s, DateTimeFormatInfo dtfi, DateTimeStyles styles)
   at System.Convert.ToDateTime(String value)
   at XRD_Tool.FormDeviceInit.WarmUpCheck() in d:\PCTool\XRD_Tool_20180527_2100\XRD_Tool\XRD_Tool\FormDeviceInit.cs:line 495]

[2018-05-27 23:31:46 301] UART Send: [PAR
]

5041520D
[2018-05-27 23:31:46 434] UART Recv: @1[PAR
LWL30
UPL75
SPE0.02
STP0.02
INT0.05
MXN10
MXT1
MXS0.005
MOD3
WAV1.48564
TSZ 45.3500
TDZ 19.3150

C=]

5041520D0A4C574C33300D0A55504C37350D0A535045302E30320D0A535450302E30320D0A494E54302E30350D0A4D584E31300D0A4D5854310D0A4D5853302E3030350D0A4D4F44330D0A574156312E34383536340D0A54535A2034352E333530300D0A54445A2031392E333135300D0A0A433D
[2018-05-27 23:31:46 436] UART Send: [PAF
]

5041460D
[2018-05-27 23:31:46 562] UART Recv: @1[PAF
]

5041460D
[2018-05-27 23:31:46 849] UART Recv: @1[
ZTA-003.3647

ZTB-001.1079

ZTX-035.0000

ZTY-050.3295

ZTZ-005.0000

STP000.0200

INT001.0000

SPE0048

C=]

0A5A54412D3030332E333634370D0A0A5A54422D3030312E313037390D0A0A5A54582D3033352E303030300D0A0A5A54592D3035302E333239350D0A0A5A545A2D3030352E303030300D0A0A5354503030302E303230300D0A0A494E543030312E303030300D0A0A535045303034380D0A0A433D
[2018-05-27 23:31:46 850] UART Send: [SDP2
]

534450320D
[2018-05-27 23:31:46 977] UART Recv: @1[SDP2
]

534450320D
[2018-05-27 23:31:47 121] UART Recv: @1[
C=]

0A433D
[2018-05-27 23:31:47 141] TCP Send: [-reset]

2D7265736574
[2018-05-27 23:31:49 741] TCP Send: [-settings Cr]

2D73657474696E6773204372
[2018-05-27 23:31:49 742] TCP Recv: []

00000000
[2018-05-27 23:34:06 491] TCP Send: [-start]

2D7374617274