File: XRD_Tool/XRD_Tool/bin/Debug/LDA_sample_name_56789_Psi-24_20180622-235710.txt
138.0000     291
138.0200     312
138.0400     331
138.0600     344
138.0800     332
138.1000     312
138.1200     297
138.1400     272
138.1600     180
138.1800      87
138.2000     118
138.2200     187
138.2400     202
138.2600     202
138.2800     232
138.3000     266
138.3200     259
138.3400     244
138.3600     279
138.3800     320
138.4000     296
138.4200     254
138.4400     252
138.4600     265
138.4800     273
138.5000     267
138.5200     204
138.5400     139
138.5600     174
138.5800     238
138.6000     242
138.6200     225
138.6400     223
138.6600     230
138.6800     249
138.7000     264
138.7200     237
138.7400     200
138.7600     196
138.7800     209
138.8000     237
138.8200     264
138.8400     251
138.8600     225
138.8800     206
138.9000     202
138.9200     261
138.9400     327
138.9600     305
138.9800     251
139.0000     215
139.0200     191
139.0400     189
139.0600     201
139.0800     243
139.1000     285
139.1200     267
139.1400     239
139.1600     279
139.1800     337
139.2000     343
139.2200     316
139.2400     221
139.2600     130
139.2800     192
139.3000     292
139.3200     272
139.3400     212
139.3600     190
139.3800     190
139.4000     219
139.4200     257
139.4400     286
139.4600     302
139.4800     263
139.5000     207
139.5200     173
139.5400     155
139.5600     175
139.5800     208
139.6000     223
139.6200     226
139.6400     204
139.6600     182
139.6800     210
139.7000     248
139.7200     239
139.7400     216
139.7600     215
139.7800     220
139.8000     210
139.8200     202
139.8400     234
139.8600     268
139.8800     237
139.9000     187
139.9200     179
139.9400     179
139.9600     140
139.9800     100
140.0000     127
140.0200     181
140.0400     238
140.0600     293
140.0800     333
140.1000     352
140.1200     293
140.1400     210
140.1600     165
140.1800     147
140.2000     188
140.2200     247
140.2400     281
140.2600     297
140.2800     274
140.3000     247
140.3200     275
140.3400     312
140.3600     281
140.3800     234
140.4000     240
140.4200     266
140.4400     284
140.4600     294
140.4800     282
140.5000     262
140.5200     244
140.5400     232
140.5600     248
140.5800     262
140.6000     206
140.6200     139
140.6400     157
140.6600     202
140.6800     212
140.7000     210
140.7200     220
140.7400     231
140.7600     230
140.7800     224
140.8000     213
140.8200     209
140.8400     242
140.8600     276
140.8800     243
140.9000     190
140.9200     172
140.9400     177
140.9600     229
140.9800     287
141.0000     287
141.0200     259
141.0400     216
141.0600     173
141.0800     163
141.1000     178
141.1200     245
141.1400     319
141.1600     326
141.1800     301
141.2000     253
141.2200     204
141.2400     200
141.2600     213
141.2800     219
141.3000     223
141.3200     225
141.3400     236
141.3600     291
141.3800     343
141.4000     300
141.4200     224
141.4400     181
141.4600     164
141.4800     207
141.5000     269
141.5200     298
141.5400     304
141.5600     263
141.5800     216
141.6000     236
141.6200     275
141.6400     282
141.6600     285
141.6800     328
141.7000     374
141.7200     352
141.7400     303
141.7600     262
141.7800     227
141.8000     204
141.8200     195
141.8400     234
141.8600     285
141.8800     300
141.9000     293
141.9200     254
141.9400     221
141.9600     283
141.9800     362
142.0000     334
142.0200     268
142.0400     219
142.0600     187
142.0800     208
142.1000     238
142.1200     208
142.1400     163
142.1600     163
142.1800     178
142.2000     173
142.2200     168
142.2400     200
142.2600     235
142.2800     213
142.3000     182
142.3200     213
142.3400     264
142.3600     295
142.3800     311
142.4000     300
142.4200     278
142.4400     256
142.4600     242
142.4800     268
142.5000     310
142.5200     349
142.5400     387
142.5600     427
142.5800     454
142.6000     421
142.6200     369
142.6400     345
142.6600     339
142.6800     360
142.7000     378
142.7200     329
142.7400     268
142.7600     280
142.7800     310
142.8000     279
142.8200     235
142.8400     256
142.8600     293
142.8800     288
142.9000     268
142.9200     258
142.9400     260
142.9600     301
142.9800     347
143.0000     348
143.0200     323
143.0400     265
143.0600     208
143.0800     231
143.1000     276
143.1200     276
143.1400     271
143.1600     334
143.1800     401
143.2000     350
143.2200     268
143.2400     268
143.2600     297
143.2800     311
143.3000     321
143.3200     346
143.3400     368
143.3600     350
143.3800     326
143.4000     352
143.4200     386
143.4400     363
143.4600     325
143.4800     324
143.5000     331
143.5200     306
143.5400     271
143.5600     251
143.5800     246
143.6000     286
143.6200     342
143.6400     385
143.6600     413
143.6800     393
143.7000     342
143.7200     241
143.7400     147
143.7600     193
143.7800     286
143.8000     337
143.8200     359
143.8400     320
143.8600     259
143.8800     216
143.9000     195
143.9200     247
143.9400     322
143.9600     357
143.9800     365
144.0000     310
144.0200     247
144.0400     269
144.0600     317
144.0800     328
144.1000     318
144.1200     276
144.1400     232
144.1600     238
144.1800     260
144.2000     261
144.2200     263
144.2400     320
144.2600     382
144.2800     362
144.3000     327
144.3200     379
144.3400     447
144.3600     425
144.3800     370
144.4000     332
144.4200     298
144.4400     259
144.4600     229
144.4800     257
144.5000     303
144.5200     317
144.5400     322
144.5600     339
144.5800     355
144.6000     341
144.6200     319
144.6400     319
144.6600     316
144.6800     261
144.7000     203
144.7200     235
144.7400     301
144.7600     359
144.7800     396
144.8000     348
144.8200     276
144.8400     257
144.8600     263
144.8800     284
144.9000     311
144.9200     331
144.9400     347
144.9600     348
144.9800     337
145.0000     293
145.0200     249
145.0400     273
145.0600     313
145.0800     295
145.1000     261
145.1200     267
145.1400     281
145.1600     258
145.1800     234
145.2000     277
145.2200     337
145.2400     347
145.2600     332
145.2800     295
145.3000     262
145.3200     291
145.3400     335
145.3600     331
145.3800     319
145.4000     367
145.4200     421
145.4400     388
145.4600     338
145.4800     376
145.5000     432
145.5200     397
145.5400     333
145.5600     312
145.5800     310
145.6000     315
145.6200     324
145.6400     339
145.6600     344
145.6800     283
145.7000     211
145.7200     220
145.7400     255
145.7600     250
145.7800     228
145.8000     196
145.8200     176
145.8400     236
145.8600     308
145.8800     280
145.9000     225
145.9200     232
145.9400     266
145.9600     310
145.9800     346
146.0000     327
146.0200     294
146.0400     304
146.0600     336
146.0800     385
146.1000     421
146.1200     357
146.1400     274
146.1600     301
146.1800     353
146.2000     315
146.2200     253
146.2400     254
146.2600     273
146.2800     256
146.3000     233
146.3200     258
146.3400     299
146.3600     325
146.3800     338
146.4000     316
146.4200     294
146.4400     340
146.4600     403
146.4800     408
146.5000     385
146.5200     339
146.5400     284
146.5600     239
146.5800     204
146.6000     202
146.6200     219
146.6400     263
146.6600     314
146.6800     350
146.7000     373
146.7200     359
146.7400     327
146.7600     275
146.7800     237
146.8000     306
146.8200     401
146.8400     412
146.8600     381
146.8800     304
146.9000     237
146.9200     320
146.9400     433
146.9600     401
146.9800     322
147.0000     301
147.0200     300
147.0400     279
147.0600     262
147.0800     300
147.1000     342
147.1200     291
147.1400     212
147.1600     179
147.1800     180
147.2000     255
147.2200     347
147.2400     384
147.2600     389
147.2800     347
147.3000     294
147.3200     278
147.3400     277
147.3600     279
147.3800     289
147.4000     327
147.4200     368
147.4400     359
147.4600     332
147.4800     312
147.5000     297
147.5200     295
147.5400     299
147.5600     301
147.5800     300
147.6000     279
147.6200     263
147.6400     305
147.6600     361
147.6800     366
147.7000     350
147.7200     339
147.7400     326
147.7600     301
147.7800     284
147.8000     329
147.8200     391
147.8400     415
147.8600     414
147.8800     371
147.9000     324
147.9200     344
147.9400     378
147.9600     354
147.9800     315
148.0000     324
148.0200     350
148.0400     363
148.0600     365
148.0800     338
148.1000     305
148.1200     292
148.1400     292
148.1600     309
148.1800     339
148.2000     399
148.2200     462
148.2400     483
148.2600     481
148.2800     446
148.3000     399
148.3200     360
148.3400     326
148.3600     300
148.3800     297
148.4000     389
148.4200     496
148.4400     487
148.4600     436
148.4800     415
148.5000     409
148.5200     423
148.5400     432
148.5600     376
148.5800     317
148.6000     371
148.6200     460
148.6400     492
148.6600     490
148.6800     428
148.7000     357
148.7200     360
148.7400     392
148.7600     429
148.7800     451
148.8000     396
148.8200     327
148.8400     342
148.8600     390
148.8800     439
148.9000     471
148.9200     412
148.9400     329
148.9600     316
148.9800     332
149.0000     356
149.0200     385
149.0400     419
149.0600     453
149.0800     479
149.1000     498
149.1200     504
149.1400     499
149.1600     472
149.1800     447
149.2000     474
149.2200     510
149.2400     489
149.2600     454
149.2800     462
149.3000     474
149.3200     411
149.3400     336
149.3600     343
149.3800     380
149.4000     403
149.4200     422
149.4400     441
149.4600     456
149.4800     446
149.5000     434
149.5200     460
149.5400     500
149.5600     527
149.5800     542
149.6000     520
149.6200     482
149.6400     436
149.6600     393
149.6800     388
149.7000     400
149.7200     419
149.7400     444
149.7600     482
149.7800     516
149.8000     497
149.8200     457
149.8400     418
149.8600     388
149.8800     397
149.9000     417
149.9200     422
149.9400     419
149.9600     414
149.9800     409
150.0000     406
150.0200     409
150.0400     437
150.0600     473
150.0800     497
150.1000     511
150.1200     492
150.1400     465
150.1600     468
150.1800     480
150.2000     482
150.2200     478
150.2400     467
150.2600     454
150.2800     443
150.3000     436
150.3200     447
150.3400     454
150.3600     405
150.3800     349
150.4000     373
150.4200     426
150.4400     464
150.4600     486
150.4800     459
150.5000     425
150.5200     451
150.5400     501
150.5600     550
150.5800     589
150.6000     584
150.6200     558
150.6400     511
150.6600     463
150.6800     458
150.7000     469
150.7200     475
150.7400     476
150.7600     464
150.7800     458
150.8000     510
150.8200     572
150.8400     561
150.8600     528
150.8800     535
150.9000     557
150.9200     577
150.9400     584
150.9600     528
150.9800     461
151.0000     469
151.0200     513
151.0400     585
151.0600     656
151.0800     664
151.1000     647
151.1200     638
151.1400     624
151.1600     567
151.1800     506
151.2000     508
151.2200     548
151.2400     646
151.2600     741
151.2800     698
151.3000     614
151.3200     600
151.3400     610
151.3600     598
151.3800     590
151.4000     639
151.4200     693
151.4400     660
151.4600     601
151.4800     587
151.5000     597
151.5200     639
151.5400     684
151.5600     686
151.5800     676
151.6000     697
151.6200     731
151.6400     765
151.6600     790
151.6800     769
151.7000     733
151.7200     720
151.7400     722
151.7600     752
151.7800     785
151.8000     772
151.8200     744
151.8400     739
151.8600     745
151.8800     761
151.9000     785
151.9200     827
151.9400     872
151.9600     887
151.9800     889
152.0000     878
152.0200     859
152.0400     830
152.0600     798
152.0800     774
152.1000     763
152.1200     797
152.1400     835
152.1600     805
152.1800     763
152.2000     804
152.2200     872
152.2400     909
152.2600     918
152.2800     855
152.3000     790
152.3200     860
152.3400     975
152.3600    1042
152.3800    1084
152.4000    1097
152.4200    1095
152.4400    1070
152.4600    1044
152.4800    1056
152.5000    1077
152.5200    1060
152.5400    1047
152.5600    1132
152.5800    1238
152.6000    1254
152.6200    1254
152.6400    1352
152.6600    1463
152.6800    1436
152.7000    1369
152.7200    1379
152.7400    1404
152.7600    1359
152.7800    1298
152.8000    1305
152.8200    1353
152.8400    1466
152.8600    1583
152.8800    1583
152.9000    1543
152.9200    1528
152.9400    1511
152.9600    1429
152.9800    1340
153.0000    1346
153.0200    1396
153.0400    1473
153.0600    1554
153.0800    1605
153.1000    1642
153.1200    1674
153.1400    1709
153.1600    1767
153.1800    1817
153.2000    1775
153.2200    1719
153.2400    1770
153.2600    1835
153.2800    1755
153.3000    1647
153.3200    1691
153.3400    1796
153.3600    1911
153.3800    1999
153.4000    1939
153.4200    1846
153.4400    1893
153.4600    1988
153.4800    2046
153.5000    2089
153.5200    2124
153.5400    2166
153.5600    2263
153.5800    2350
153.6000    2280
153.6200    2168
153.6400    2158
153.6600    2193
153.6800    2251
153.7000    2299
153.7200    2249
153.7400    2190
153.7600    2286
153.7800    2412
153.8000    2381
153.8200    2316
153.8400    2393
153.8600    2483
153.8800    2356
153.9000    2189
153.9200    2256
153.9400    2374
153.9600    2283
153.9800    2151
154.0000    2224
154.0200    2359
154.0400    2387
154.0600    2375
154.0800    2373
154.1000    2386
154.1200    2453
154.1400    2538
154.1600    2608
154.1800    2639
154.2000    2506
154.2200    2339
154.2400    2327
154.2600    2377
154.2800    2424
154.3000    2469
154.3200    2507
154.3400    2537
154.3600    2537
154.3800    2522
154.4000    2489
154.4200    2451
154.4400    2426
154.4600    2415
154.4800    2447
154.5000    2508
154.5200    2619
154.5400    2718
154.5600    2650
154.5800    2547
154.6000    2594
154.6200    2656
154.6400    2485
154.6600    2265
154.6800    2265
154.7000    2335
154.7200    2316
154.7400    2261
154.7600    2201
154.7800    2159
154.8000    2214
154.8200    2292
154.8400    2290
154.8600    2259
154.8800    2243
154.9000    2243
154.9200    2291
154.9400    2342
154.9600    2310
154.9800    2250
155.0000    2223
155.0200    2207
155.0400    2178
155.0600    2131
155.0800    2019
155.1000    1914
155.1200    1976
155.1400    2096
155.1600    2179
155.1800    2220
155.2000    2124
155.2200    2001
155.2400    2010
155.2600    2055
155.2800    2018
155.3000    1959
155.3200    1952
155.3400    1961
155.3600    1948
155.3800    1919
155.4000    1850
155.4200    1779
155.4400    1775
155.4600    1799
155.4800    1833
155.5000    1844
155.5200    1723
155.5400    1566
155.5600    1494
155.5800    1479
155.6000    1576
155.6200    1691
155.6400    1673
155.6600    1619
155.6800    1655
155.7000    1705
155.7200    1650
155.7400    1570
155.7600    1578
155.7800    1606
155.8000    1554
155.8200    1490
155.8400    1523
155.8600    1573
155.8800    1514
155.9000    1420
155.9200    1365
155.9400    1332
155.9600    1334
155.9800    1350
156.0000    1366
156.0200    1371
156.0400    1326
156.0600    1271
156.0800    1273
156.1000    1286
156.1200    1247
156.1400    1205
156.1600    1253
156.1800    1321
156.2000    1307
156.2200    1262
156.2400    1221
156.2600    1188
156.2800    1190
156.3000    1202
156.3200    1197
156.3400    1175
156.3600    1105
156.3800    1036
156.4000    1070
156.4200    1143
156.4400    1199
156.4600    1232
156.4800    1179
156.5000    1103
156.5200    1088
156.5400    1093
156.5600    1068
156.5800    1026
156.6000     951
156.6200     892
156.6400     979
156.6600    1108
156.6800    1147
156.7000    1146
156.7200    1120
156.7400    1069
156.7600     941
156.7800     814
156.8000     837
156.8200     911
156.8400     932
156.8600     935
156.8800     953
156.9000     964
156.9200     915
156.9400     852
156.9600     847
156.9800     855
157.0000     813
157.0200     766
157.0400     789
157.0600     833
157.0800     839
157.1000     820
157.1200     756
157.1400     688
157.1600     688
157.1800     704
157.2000     662
157.2200     611
157.2400     638
157.2600     696
157.2800     751
157.3000     793
157.3200     773
157.3400     736
157.3600     732
157.3800     738
157.4000     719
157.4200     692
157.4400     672
157.4600     644
157.4800     566
157.5000     491
157.5200     529
157.5400     600
157.5600     606
157.5800     593
157.6000     617
157.6200     650
157.6400     656
157.6600     662
157.6800     716
157.7000     775
157.7200     754
157.7400     704
157.7600     666
157.7800     626
157.8000     559
157.8200     505
157.8400     571
157.8600     662
157.8800     633
157.9000     568
157.9200     560
157.9400     569
157.9600     553
157.9800     529
158.0000     515
158.0200     515
158.0400     567
158.0600     617
158.0800     562
158.1000     486
158.1200     518
158.1400     585
158.1600     607
158.1800     604
158.2000     568
158.2200     526
158.2400     522
158.2600     533
158.2800     537
158.3000     540
158.3200     543
158.3400     542
158.3600     516
158.3800     491
158.4000     521
158.4200     566
158.4400     574
158.4600     567
158.4800     555
158.5000     544
158.5200     545
158.5400     549
158.5600     546
158.5800     542
158.6000     545
158.6200     549
158.6400     541
158.6600     532
158.6800     536
158.7000     536
158.7200     483
158.7400     419
158.7600     403
158.7800     409
158.8000     423
158.8200     433
158.8400     398
158.8600     359
158.8800     385
158.9000     429
158.9200     433
158.9400     424
158.9600     428
158.9800     447
159.0000     508
159.0200     562
159.0400     499
159.0600     406
159.0800     393
159.1000     411
159.1200     417
159.1400     426
159.1600     469
159.1800     510
159.2000     479
159.2200     431
159.2400     440
159.2600     468
159.2800     479
159.3000     476
159.3200     438
159.3400     394
159.3600     387
159.3800     388
159.4000     357
159.4200     331
159.4400     397
159.4600     478
159.4800     456
159.5000     401
159.5200     391
159.5400     401
159.5600     422
159.5800     446
159.6000     457
159.6200     447
159.6400     360
159.6600     275
159.6800     352
159.7000     470
159.7200     471
159.7400     428
159.7600     400
159.7800     386
159.8000     407
159.8200     428
159.8400     371
159.8600     310
159.8800     385
159.9000     484
159.9200     425
159.9400     328
159.9600     356
159.9800     416
160.0000     388
160.0200     333
160.0400     326
160.0600     341
160.0800     371
160.1000     402
160.1200     408
160.1400     402
160.1600     383
160.1800     363
160.2000     368
160.2200     372
160.2400     324
160.2600     278
160.2800     340
160.3000     431
160.3200     447
160.3400     439
160.3600     456
160.3800     471
160.4000     418
160.4200     346
160.4400     319
160.4600     323
160.4800     395
160.5000     477
160.5200     466
160.5400     421
160.5600     392
160.5800     368
160.6000     329
160.6200     284
160.6400     234
160.6600     193
160.6800     209
160.7000     249
160.7200     302
160.7400     348
160.7600     334
160.7800     309
160.8000     348
160.8200     398
160.8400     379
160.8600     331
160.8800     268
160.9000     218
160.9200     256
160.9400     317
160.9600     310
160.9800     278
161.0000     258
161.0200     246
161.0400     259
161.0600     278
161.0800     280
161.1000     275
161.1200     262
161.1400     252
161.1600     277
161.1800     316
161.2000     360
161.2200     390
161.2400     342
161.2600     273
161.2800     262
161.3000     271
161.3200     265
161.3400     261
161.3600     294
161.3800     333
161.4000     328
161.4200     314
161.4400     340
161.4600     375
161.4800     375
161.5000     355
161.5200     302
161.5400     249
161.5600     263
161.5800     301
161.6000     330
161.6200     356
161.6400     381
161.6600     397
161.6800     378
161.7000     339
161.7200     277
161.7400     224
161.7600     266
161.7800     333
161.8000     335
161.8200     320
161.8400     351
161.8600     389
161.8800     362
161.9000     316
161.9200     300
161.9400     294
161.9600     278
161.9800     253