File: XRD_Tool/XRD_Tool/bin/Debug/LDA_sample_name_56789_Psi-24_20180623-124906.txt
138.0000     246
138.0200     228
138.0400     210
138.0600     202
138.0800     242
138.1000     286
138.1200     247
138.1400     188
138.1600     197
138.1800     235
138.2000     285
138.2200     326
138.2400     300
138.2600     265
138.2800     313
138.3000     383
138.3200     390
138.3400     360
138.3600     270
138.3800     179
138.4000     205
138.4200     270
138.4400     303
138.4600     315
138.4800     284
138.5000     243
138.5200     240
138.5400     251
138.5600     255
138.5800     258
138.6000     266
138.6200     280
138.6400     313
138.6600     343
138.6800     328
138.7000     303
138.7200     321
138.7400     344
138.7600     304
138.7800     247
138.8000     237
138.8200     251
138.8400     300
138.8600     351
138.8800     350
138.9000     323
138.9200     266
138.9400     220
138.9600     286
138.9800     370
139.0000     326
139.0200     238
139.0400     191
139.0600     170
139.0800     189
139.1000     224
139.1200     252
139.1400     267
139.1600     224
139.1800     172
139.2000     190
139.2200     229
139.2400     236
139.2600     228
139.2800     210
139.3000     193
139.3200     200
139.3400     216
139.3600     233
139.3800     251
139.4000     264
139.4200     275
139.4400     279
139.4600     282
139.4800     287
139.5000     287
139.5200     260
139.5400     233
139.5600     260
139.5800     291
139.6000     240
139.6200     171
139.6400     174
139.6600     208
139.6800     255
139.7000     295
139.7200     272
139.7400     238
139.7600     279
139.7800     331
139.8000     291
139.8200     221
139.8400     181
139.8600     152
139.8800     120
139.9000      95
139.9200     117
139.9400     154
139.9600     181
139.9800     205
140.0000     239
140.0200     272
140.0400     280
140.0600     277
140.0800     267
140.1000     255
140.1200     245
140.1400     248
140.1600     316
140.1800     387
140.2000     346
140.2200     274
140.2400     267
140.2600     279
140.2800     251
140.3000     227
140.3200     301
140.3400     384
140.3600     311
140.3800     197
140.4000     198
140.4200     243
140.4400     281
140.4600     303
140.4800     255
140.5000     190
140.5200     180
140.5400     194
140.5600     216
140.5800     243
140.6000     275
140.6200     301
140.6400     282
140.6600     250
140.6800     236
140.7000     236
140.7200     261
140.7400     293
140.7600     302
140.7800     303
140.8000     309
140.8200     315
140.8400     316
140.8600     315
140.8800     317
140.9000     317
140.9200     295
140.9400     271
140.9600     272
140.9800     283
141.0000     289
141.0200     294
141.0400     306
141.0600     314
141.0800     294
141.1000     270
141.1200     287
141.1400     318
141.1600     334
141.1800     340
141.2000     326
141.2200     306
141.2400     296
141.2600     294
141.2800     309
141.3000     320
141.3200     279
141.3400     233
141.3600     267
141.3800     321
141.4000     314
141.4200     287
141.4400     290
141.4600     288
141.4800     209
141.5000     131
141.5200     208
141.5400     318
141.5600     278
141.5800     202
141.6000     248
141.6200     328
141.6400     338
141.6600     323
141.6800     323
141.7000     324
141.7200     303
141.7400     278
141.7600     277
141.7800     286
141.8000     305
141.8200     319
141.8400     295
141.8600     257
141.8800     230
141.9000     216
141.9200     239
141.9400     273
141.9600     287
141.9800     291
142.0000     287
142.0200     279
142.0400     271
142.0600     269
142.0800     302
142.1000     348
142.1200     396
142.1400     430
142.1600     397
142.1800     344
142.2000     326
142.2200     316
142.2400     278
142.2600     240
142.2800     260
142.3000     305
142.3200     355
142.3400     399
142.3600     405
142.3800     397
142.4000     402
142.4200     411
142.4400     412
142.4600     410
142.4800     410
142.5000     403
142.5200     366
142.5400     329
142.5600     355
142.5800     397
142.6000     389
142.6200     370
142.6400     393
142.6600     427
142.6800     434
142.7000     436
142.7200     466
142.7400     491
142.7600     428
142.7800     343
142.8000     321
142.8200     329
142.8400     354
142.8600     383
142.8800     398
142.9000     408
142.9200     415
142.9400     411
142.9600     355
142.9800     295
143.0000     317
143.0200     361
143.0400     353
143.0600     332
143.0800     346
143.1000     367
143.1200     350
143.1400     324
143.1600     333
143.1800     348
143.2000     326
143.2200     294
143.2400     280
143.2600     282
143.2800     324
143.3000     376
143.3200     395
143.3400     401
143.3600     405
143.3800     410
143.4000     420
143.4200     421
143.4400     367
143.4600     304
143.4800     306
143.5000     333
143.5200     357
143.5400     374
143.5600     364
143.5800     350
143.6000     364
143.6200     388
143.6400     402
143.6600     411
143.6800     410
143.7000     398
143.7200     344
143.7400     283
143.7600     264
143.7800     273
143.8000     335
143.8200     405
143.8400     402
143.8600     370
143.8800     339
143.9000     318
143.9200     337
143.9400     371
143.9600     395
143.9800     413
144.0000     418
144.0200     415
144.0400     398
144.0600     371
144.0800     316
144.1000     263
144.1200     275
144.1400     308
144.1600     314
144.1800     312
144.2000     322
144.2200     334
144.2400     338
144.2600     336
144.2800     327
144.3000     320
144.3200     340
144.3400     365
144.3600     365
144.3800     358
144.4000     364
144.4200     373
144.4400     365
144.4600     353
144.4800     346
144.5000     343
144.5200     347
144.5400     354
144.5600     368
144.5800     380
144.6000     375
144.6200     368
144.6400     383
144.6600     396
144.6800     359
144.7000     314
144.7200     332
144.7400     367
144.7600     359
144.7800     335
144.8000     321
144.8200     324
144.8400     390
144.8600     463
144.8800     438
144.9000     377
144.9200     331
144.9400     300
144.9600     319
144.9800     351
145.0000     353
145.0200     347
145.0400     363
145.0600     384
145.0800     390
145.1000     384
145.1200     348
145.1400     315
145.1600     357
145.1800     417
145.2000     417
145.2200     386
145.2400     325
145.2600     272
145.2800     322
145.3000     399
145.3200     401
145.3400     374
145.3600     352
145.3800     341
145.4000     375
145.4200     418
145.4400     414
145.4600     398
145.4800     412
145.5000     427
145.5200     386
145.5400     335
145.5600     349
145.5800     388
145.6000     425
145.6200     449
145.6400     411
145.6600     364
145.6800     387
145.7000     427
145.7200     405
145.7400     357
145.7600     299
145.7800     255
145.8000     296
145.8200     352
145.8400     310
145.8600     244
145.8800     260
145.9000     303
145.9200     324
145.9400     335
145.9600     338
145.9800     347
146.0000     402
146.0200     464
146.0400     461
146.0600     435
146.0800     416
146.1000     403
146.1200     410
146.1400     420
146.1600     410
146.1800     395
146.2000     395
146.2200     396
146.2400     372
146.2600     348
146.2800     377
146.3000     425
146.3200     463
146.3400     490
146.3600     479
146.3800     451
146.4000     416
146.4200     385
146.4400     388
146.4600     400
146.4800     393
146.5000     387
146.5200     418
146.5400     447
146.5600     389
146.5800     318
146.6000     349
146.6200     403
146.6400     368
146.6600     310
146.6800     307
146.7000     338
146.7200     424
146.7400     513
146.7600     504
146.7800     456
146.8000     413
146.8200     369
146.8400     318
146.8600     283
146.8800     338
146.9000     411
146.9200     387
146.9400     333
146.9600     319
146.9800     323
147.0000     336
147.0200     354
147.0400     382
147.0600     412
147.0800     432
147.1000     439
147.1200     401
147.1400     350
147.1600     325
147.1800     320
147.2000     360
147.2200     408
147.2400     406
147.2600     386
147.2800     371
147.3000     367
147.3200     401
147.3400     442
147.3600     435
147.3800     420
147.4000     462
147.4200     505
147.4400     444
147.4600     364
147.4800     393
147.5000     452
147.5200     451
147.5400     428
147.5600     423
147.5800     425
147.6000     422
147.6200     424
147.6400     454
147.6600     480
147.6800     425
147.7000     355
147.7200     376
147.7400     420
147.7600     394
147.7800     361
147.8000     432
147.8200     521
147.8400     500
147.8600     440
147.8800     408
147.9000     384
147.9200     342
147.9400     309
147.9600     364
147.9800     452
148.0000     525
148.0200     573
148.0400     521
148.0600     436
148.0800     388
148.1000     365
148.1200     400
148.1400     448
148.1600     445
148.1800     421
148.2000     397
148.2200     381
148.2400     410
148.2600     452
148.2800     472
148.3000     480
148.3200     470
148.3400     455
148.3600     453
148.3800     464
148.4000     508
148.4200     552
148.4400     526
148.4600     483
148.4800     492
148.5000     516
148.5200     510
148.5400     494
148.5600     490
148.5800     486
148.6000     463
148.6200     438
148.6400     437
148.6600     445
148.6800     458
148.7000     467
148.7200     451
148.7400     426
148.7600     404
148.7800     391
148.8000     415
148.8200     447
148.8400     449
148.8600     442
148.8800     450
148.9000     468
148.9200     509
148.9400     549
148.9600     534
148.9800     496
149.0000     450
149.0200     409
149.0400     411
149.0600     429
149.0800     439
149.1000     452
149.1200     502
149.1400     555
149.1600     558
149.1800     546
149.2000     564
149.2200     582
149.2400     542
149.2600     485
149.2800     468
149.3000     458
149.3200     406
149.3400     357
149.3600     401
149.3800     478
149.4000     525
149.4200     552
149.4400     534
149.4600     499
149.4800     467
149.5000     448
149.5200     483
149.5400     519
149.5600     456
149.5800     379
149.6000     424
149.6200     509
149.6400     549
149.6600     566
149.6800     561
149.7000     550
149.7200     549
149.7400     556
149.7600     578
149.7800     593
149.8000     545
149.8200     489
149.8400     521
149.8600     572
149.8800     540
149.9000     484
149.9200     480
149.9400     499
149.9600     538
149.9800     575
150.0000     565
150.0200     548
150.0400     584
150.0600     631
150.0800     622
150.1000     579
150.1200     482
150.1400     387
150.1600     402
150.1800     462
150.2000     519
150.2200     560
150.2400     531
150.2600     486
150.2800     504
150.3000     540
150.3200     534
150.3400     525
150.3600     578
150.3800     641
150.4000     627
150.4200     584
150.4400     546
150.4600     516
150.4800     518
150.5000     533
150.5200     555
150.5400     573
150.5600     562
150.5800     546
150.6000     560
150.6200     576
150.6400     537
150.6600     491
150.6800     513
150.7000     560
150.7200     587
150.7400     597
150.7600     559
150.7800     512
150.8000     522
150.8200     552
150.8400     577
150.8600     589
150.8800     554
150.9000     515
150.9200     551
150.9400     613
150.9600     655
150.9800     686
151.0000     701
151.0200     702
151.0400     671
151.0600     632
151.0800     616
151.1000     617
151.1200     648
151.1400     687
151.1600     699
151.1800     685
151.2000     590
151.2200     487
151.2400     510
151.2600     574
151.2800     588
151.3000     591
151.3200     636
151.3400     683
151.3600     658
151.3800     619
151.4000     654
151.4200     709
151.4400     724
151.4600     715
151.4800     674
151.5000     634
151.5200     664
151.5400     716
151.5600     733
151.5800     736
151.6000     731
151.6200     733
151.6400     790
151.6600     849
151.6800     811
151.7000     743
151.7200     715
151.7400     714
151.7600     765
151.7800     822
151.8000     809
151.8200     778
151.8400     804
151.8600     848
151.8800     875
151.9000     888
151.9200     864
151.9400     830
151.9600     813
151.9800     803
152.0000     796
152.0200     797
152.0400     830
152.0600     864
152.0800     838
152.1000     799
152.1200     815
152.1400     848
152.1600     859
152.1800     859
152.2000     844
152.2200     839
152.2400     907
152.2600     983
152.2800     946
152.3000     877
152.3200     876
152.3400     902
152.3600     928
152.3800     951
152.4000     954
152.4200     949
152.4400     941
152.4600     931
152.4800     923
152.5000     935
152.5200    1047
152.5400    1178
152.5600    1209
152.5800    1205
152.6000    1234
152.6200    1269
152.6400    1266
152.6600    1244
152.6800    1200
152.7000    1165
152.7200    1213
152.7400    1289
152.7600    1334
152.7800    1358
152.8000    1345
152.8200    1324
152.8400    1338
152.8600    1361
152.8800    1361
152.9000    1353
152.9200    1358
152.9400    1368
152.9600    1378
152.9800    1389
153.0000    1405
153.0200    1418
153.0400    1405
153.0600    1390
153.0800    1425
153.1000    1476
153.1200    1512
153.1400    1535
153.1600    1525
153.1800    1522
153.2000    1627
153.2200    1754
153.2400    1773
153.2600    1740
153.2800    1663
153.3000    1590
153.3200    1622
153.3400    1694
153.3600    1755
153.3800    1789
153.4000    1713
153.4200    1619
153.4400    1660
153.4600    1752
153.4800    1837
153.5000    1913
153.5200    1956
153.5400    2001
153.5600    2123
153.5800    2235
153.6000    2152
153.6200    2012
153.6400    1982
153.6600    2017
153.6800    2159
153.7000    2317
153.7200    2348
153.7400    2331
153.7600    2327
153.7800    2329
153.8000    2326
153.8200    2332
153.8400    2386
153.8600    2436
153.8800    2361
153.9000    2264
153.9200    2300
153.9400    2381
153.9600    2414
153.9800    2406
154.0000    2286
154.0200    2138
154.0400    2067
154.0600    2046
154.0800    2121
154.1000    2228
154.1200    2295
154.1400    2347
154.1600    2396
154.1800    2428
154.2000    2381
154.2200    2314
154.2400    2297
154.2600    2310
154.2800    2368
154.3000    2429
154.3200    2417
154.3400    2365
154.3600    2266
154.3800    2186
154.4000    2296
154.4200    2450
154.4400    2443
154.4600    2375
154.4800    2327
154.5000    2297
154.5200    2322
154.5400    2366
154.5600    2398
154.5800    2408
154.6000    2326
154.6200    2225
154.6400    2206
154.6600    2219
154.6800    2230
154.7000    2231
154.7200    2184
154.7400    2115
154.7600    2031
154.7800    1983
154.8000    2143
154.8200    2343
154.8400    2325
154.8600    2236
154.8800    2232
154.9000    2266
154.9200    2322
154.9400    2365
154.9600    2306
154.9800    2215
155.0000    2169
155.0200    2148
155.0400    2160
155.0600    2166
155.0800    2072
155.1000    1972
155.1200    2039
155.1400    2135
155.1600    2041
155.1800    1897
155.2000    1883
155.2200    1905
155.2400    1850
155.2600    1786
155.2800    1827
155.3000    1904
155.3200    1943
155.3400    1955
155.3600    1912
155.3800    1865
155.4000    1913
155.4200    1973
155.4400    1906
155.4600    1801
155.4800    1760
155.5000    1744
155.5200    1731
155.5400    1717
155.5600    1691
155.5800    1658
155.6000    1607
155.6200    1550
155.6400    1500
155.6600    1470
155.6800    1533
155.7000    1616
155.7200    1614
155.7400    1577
155.7600    1537
155.7800    1496
155.8000    1458
155.8200    1439
155.8400    1507
155.8600    1572
155.8800    1454
155.9000    1292
155.9200    1281
155.9400    1320
155.9600    1304
155.9800    1275
156.0000    1290
156.0200    1335
156.0400    1450
156.0600    1566
156.0800    1554
156.1000    1482
156.1200    1375
156.1400    1256
156.1600    1152
156.1800    1066
156.2000    1043
156.2200    1056
156.2400    1121
156.2600    1195
156.2800    1212
156.3000    1209
156.3200    1216
156.3400    1213
156.3600    1132
156.3800    1036
156.4000    1025
156.4200    1049
156.4400    1081
156.4600    1114
156.4800    1129
156.5000    1134
156.5200    1127
156.5400    1119
156.5600    1133
156.5800    1145
156.6000    1109
156.6200    1067
156.6400    1095
156.6600    1135
156.6800    1096
156.7000    1032
156.7200     993
156.7400     959
156.7600     893
156.7800     836
156.8000     883
156.8200     958
156.8400     971
156.8600     956
156.8800     924
156.9000     890
156.9200     875
156.9400     870
156.9600     881
156.9800     888
157.0000     839
157.0200     777
157.0400     765
157.0600     789
157.0800     894
157.1000     999
157.1200     934
157.1400     821
157.1600     801
157.1800     812
157.2000     785
157.2200     758
157.2400     804
157.2600     860
157.2800     814
157.3000     744
157.3200     749
157.3400     780
157.3600     783
157.3800     769
157.4000     726
157.4200     686
157.4400     716
157.4600     762
157.4800     743
157.5000     704
157.5200     690
157.5400     676
157.5600     612
157.5800     546
157.6000     570
157.6200     632
157.6400     701
157.6600     759
157.6800     750
157.7000     723
157.7200     739
157.7400     763
157.7600     732
157.7800     692
157.8000     714
157.8200     749
157.8400     729
157.8600     691
157.8800     676
157.9000     666
157.9200     636
157.9400     609
157.9600     632
157.9800     674
158.0000     703
158.0200     715
158.0400     670
158.0600     614
158.0800     615
158.1000     636
158.1200     647
158.1400     650
158.1600     636
158.1800     610
158.2000     552
158.2200     500
158.2400     535
158.2600     595
158.2800     605
158.3000     594
158.3200     578
158.3400     573
158.3600     635
158.3800     702
158.4000     665
158.4200     596
158.4400     569
158.4600     568
158.4800     610
158.5000     669
158.5200     725
158.5400     757
158.5600     682
158.5800     575
158.6000     520
158.6200     501
158.6400     559
158.6600     636
158.6800     663
158.7000     660
158.7200     614
158.7400     559
158.7600     550
158.7800     565
158.8000     602
158.8200     644
158.8400     668
158.8600     674
158.8800     630
158.9000     572
158.9200     544
158.9400     529
158.9600     520
158.9800     517
159.0000     524
159.0200     530
159.0400     503
159.0600     467
159.0800     456
159.1000     471
159.1200     571
159.1400     679
159.1600     655
159.1800     591
159.2000     584
159.2200     601
159.2400     624
159.2600     638
159.2800     587
159.3000     527
159.3200     547
159.3400     592
159.3600     600
159.3800     585
159.4000     524
159.4200     459
159.4400     469
159.4600     503
159.4800     512
159.5000     516
159.5200     550
159.5400     577
159.5600     509
159.5800     426
159.6000     460
159.6200     530
159.6400     555
159.6600     562
159.6800     576
159.7000     592
159.7200     608
159.7400     612
159.7600     556
159.7800     490
159.8000     497
159.8200     526
159.8400     520
159.8600     503
159.8800     503
159.9000     511
159.9200     527
159.9400     542
159.9600     530
159.9800     514
160.0000     523
160.0200     539
160.0400     535
160.0600     526
160.0800     529
160.1000     528
160.1200     487
160.1400     441
160.1600     453
160.1800     492
160.2000     544
160.2200     589
160.2400     569
160.2600     527
160.2800     504
160.3000     487
160.3200     468
160.3400     447
160.3600     423
160.3800     412
160.4000     479
160.4200     556
160.4400     523
160.4600     460
160.4800     464
160.5000     490
160.5200     498
160.5400     500
160.5600     515
160.5800     533
160.6000     539
160.6200     537
160.6400     512
160.6600     489
160.6800     524
160.7000     566
160.7200     523
160.7400     455
160.7600     424
160.7800     413
160.8000     432
160.8200     463
160.8400     502
160.8600     545
160.8800     590
160.9000     617
160.9200     552
160.9400     464
160.9600     445
160.9800     452
161.0000     455
161.0200     457
161.0400     458
161.0600     456
161.0800     447
161.1000     434
161.1200     418
161.1400     400
161.1600     382
161.1800     375
161.2000     421
161.2200     474
161.2400     454
161.2600     407
161.2800     378
161.3000     377
161.3200     476
161.3400     591
161.3600     581
161.3800     534
161.4000     550
161.4200     585
161.4400     584
161.4600     554
161.4800     455
161.5000     356
161.5200     391
161.5400     466
161.5600     481
161.5800     470
161.6000     454
161.6200     442
161.6400     463
161.6600     481
161.6800     416
161.7000     339
161.7200     369
161.7400     433
161.7600     458
161.7800     456
161.8000     391
161.8200     320
161.8400     342
161.8600     400
161.8800     448
161.9000     480
161.9200     452
161.9400     409
161.9600     408
161.9800     417