File: XRD_Tool/XRD_Tool/bin/Debug/LDA_sample_name_56789_Psi-0_20180623-000227.txt
141.0000     204
141.0200     196
141.0400     221
141.0600     260
141.0800     306
141.1000     347
141.1200     353
141.1400     338
141.1600     288
141.1800     233
141.2000     223
141.2200     231
141.2400     241
141.2600     243
141.2800     205
141.3000     164
141.3200     193
141.3400     241
141.3600     247
141.3800     237
141.4000     227
141.4200     219
141.4400     219
141.4600     222
141.4800     217
141.5000     202
141.5200     154
141.5400     109
141.5600     152
141.5800     224
141.6000     263
141.6200     287
141.6400     301
141.6600     307
141.6800     298
141.7000     287
141.7200     301
141.7400     313
141.7600     263
141.7800     207
141.8000     241
141.8200     303
141.8400     322
141.8600     314
141.8800     257
141.9000     188
141.9200     153
141.9400     133
141.9600     123
141.9800     128
142.0000     188
142.0200     261
142.0400     294
142.0600     305
142.0800     293
142.1000     268
142.1200     233
142.1400     204
142.1600     228
142.1800     269
142.2000     283
142.2200     286
142.2400     281
142.2600     268
142.2800     232
142.3000     190
142.3200     171
142.3400     168
142.3600     200
142.3800     236
142.4000     222
142.4200     205
142.4400     271
142.4600     347
142.4800     298
142.5000     212
142.5200     183
142.5400     184
142.5600     225
142.5800     269
142.6000     255
142.6200     221
142.6400     207
142.6600     202
142.6800     202
142.7000     202
142.7200     192
142.7400     183
142.7600     202
142.7800     230
142.8000     246
142.8200     259
142.8400     277
142.8600     289
142.8800     261
142.9000     229
142.9200     256
142.9400     285
142.9600     209
142.9800     114
143.0000     135
143.0200     194
143.0400     203
143.0600     199
143.0800     223
143.1000     259
143.1200     290
143.1400     308
143.1600     266
143.1800     215
143.2000     236
143.2200     274
143.2400     255
143.2600     218
143.2800     208
143.3000     204
143.3200     182
143.3400     159
143.3600     174
143.3800     206
143.4000     246
143.4200     288
143.4400     320
143.4600     335
143.4800     282
143.5000     223
143.5200     267
143.5400     338
143.5600     336
143.5800     309
143.6000     307
143.6200     313
143.6400     312
143.6600     300
143.6800     243
143.7000     187
143.7200     219
143.7400     272
143.7600     245
143.7800     199
143.8000     211
143.8200     244
143.8400     257
143.8600     262
143.8800     264
143.9000     261
143.9200     243
143.9400     229
143.9600     265
143.9800     314
144.0000     330
144.0200     327
144.0400     304
144.0600     273
144.0800     245
144.1000     228
144.1200     256
144.1400     296
144.1600     303
144.1800     307
144.2000     361
144.2200     412
144.2400     353
144.2600     264
144.2800     252
144.3000     267
144.3200     272
144.3400     273
144.3600     281
144.3800     293
144.4000     315
144.4200     336
144.4400     335
144.4600     319
144.4800     270
144.5000     222
144.5200     244
144.5400     282
144.5600     263
144.5800     224
144.6000     197
144.6200     179
144.6400     181
144.6600     190
144.6800     199
144.7000     214
144.7200     262
144.7400     306
144.7600     262
144.7800     190
144.8000     158
144.8200     158
144.8400     238
144.8600     330
144.8800     320
144.9000     284
144.9200     318
144.9400     368
144.9600     356
144.9800     325
145.0000     314
145.0200     314
145.0400     322
145.0600     322
145.0800     259
145.1000     196
145.1200     258
145.1400     355
145.1600     377
145.1800     370
145.2000     371
145.2200     371
145.2400     346
145.2600     313
145.2800     283
145.3000     267
145.3200     311
145.3400     373
145.3600     405
145.3800     412
145.4000     354
145.4200     279
145.4400     248
145.4600     234
145.4800     223
145.5000     215
145.5200     214
145.5400     224
145.5600     279
145.5800     335
145.6000     311
145.6200     258
145.6400     222
145.6600     199
145.6800     212
145.7000     241
145.7200     274
145.7400     304
145.7600     314
145.7800     310
145.8000     281
145.8200     258
145.8400     318
145.8600     393
145.8800     375
145.9000     327
145.9200     317
145.9400     327
145.9600     357
145.9800     386
146.0000     372
146.0200     340
146.0400     306
146.0600     289
146.0800     354
146.1000     427
146.1200     375
146.1400     287
146.1600     274
146.1800     292
146.2000     322
146.2200     349
146.2400     344
146.2600     329
146.2800     331
146.3000     336
146.3200     329
146.3400     321
146.3600     333
146.3800     353
146.4000     368
146.4200     380
146.4400     384
146.4600     376
146.4800     328
146.5000     278
146.5200     296
146.5400     341
146.5600     381
146.5800     407
146.6000     375
146.6200     328
146.6400     328
146.6600     339
146.6800     316
146.7000     285
146.7200     274
146.7400     276
146.7600     295
146.7800     324
146.8000     373
146.8200     420
146.8400     422
146.8600     408
146.8800     404
146.9000     410
146.9200     449
146.9400     495
146.9600     508
146.9800     495
147.0000     420
147.0200     338
147.0400     345
147.0600     370
147.0800     315
147.1000     244
147.1200     256
147.1400     303
147.1600     357
147.1800     395
147.2000     346
147.2200     269
147.2400     227
147.2600     212
147.2800     261
147.3000     326
147.3200     349
147.3400     354
147.3600     351
147.3800     348
147.4000     360
147.4200     368
147.4400     326
147.4600     278
147.4800     305
147.5000     346
147.5200     310
147.5400     269
147.5600     355
147.5800     463
147.6000     434
147.6200     358
147.6400     322
147.6600     306
147.6800     309
147.7000     316
147.7200     313
147.7400     313
147.7600     351
147.7800     391
147.8000     358
147.8200     303
147.8400     284
147.8600     290
147.8800     341
147.9000     403
147.9200     425
147.9400     422
147.9600     374
147.9800     321
148.0000     335
148.0200     371
148.0400     390
148.0600     395
148.0800     360
148.1000     317
148.1200     311
148.1400     325
148.1600     372
148.1800     418
148.2000     393
148.2200     347
148.2400     341
148.2600     350
148.2800     359
148.3000     366
148.3200     366
148.3400     361
148.3600     341
148.3800     326
148.4000     366
148.4200     414
148.4400     394
148.4600     357
148.4800     378
148.5000     408
148.5200     368
148.5400     317
148.5600     346
148.5800     401
148.6000     423
148.6200     426
148.6400     404
148.6600     378
148.6800     384
148.7000     400
148.7200     411
148.7400     422
148.7600     446
148.7800     463
148.8000     413
148.8200     353
148.8400     373
148.8600     421
148.8800     449
148.9000     452
148.9200     365
148.9400     258
148.9600     223
148.9800     228
149.0000     288
149.0200     361
149.0400     389
149.0600     396
149.0800     388
149.1000     363
149.1200     286
149.1400     208
149.1600     230
149.1800     290
149.2000     338
149.2200     372
149.2400     351
149.2600     318
149.2800     332
149.3000     356
149.3200     342
149.3400     317
149.3600     322
149.3800     338
149.4000     352
149.4200     366
149.4400     382
149.4600     399
149.4800     419
149.5000     432
149.5200     402
149.5400     365
149.5600     381
149.5800     405
149.6000     361
149.6200     308
149.6400     353
149.6600     428
149.6800     453
149.7000     448
149.7200     390
149.7400     320
149.7600     298
149.7800     313
149.8000     415
149.8200     522
149.8400     486
149.8600     407
149.8800     406
149.9000     421
149.9200     361
149.9400     291
149.9600     319
149.9800     375
150.0000     371
150.0200     358
150.0400     415
150.0600     477
150.0800     421
150.1000     334
150.1200     332
150.1400     362
150.1600     384
150.1800     407
150.2000     460
150.2200     523
150.2400     579
150.2600     616
150.2800     568
150.3000     494
150.3200     462
150.3400     451
150.3600     463
150.3800     487
150.4000     518
150.4200     555
150.4400     607
150.4600     653
150.4800     639
150.5000     604
150.5200     587
150.5400     584
150.5600     618
150.5800     645
150.6000     569
150.6200     467
150.6400     450
150.6600     464
150.6800     468
150.7000     470
150.7200     480
150.7400     491
150.7600     487
150.7800     496
150.8000     602
150.8200     720
150.8400     711
150.8600     650
150.8800     584
150.9000     533
150.9200     566
150.9400     622
150.9600     631
150.9800     626
151.0000     648
151.0200     673
151.0400     666
151.0600     649
151.0800     644
151.1000     636
151.1200     591
151.1400     558
151.1600     657
151.1800     782
151.2000     774
151.2200     723
151.2400     727
151.2600     745
151.2800     728
151.3000     710
151.3200     762
151.3400     821
151.3600     777
151.3800     706
151.4000     713
151.4200     746
151.4400     754
151.4600     758
151.4800     792
151.5000     826
151.5200     798
151.5400     762
151.5600     801
151.5800     847
151.6000     770
151.6200     665
151.6400     670
151.6600     716
151.6800     754
151.7000     785
151.7200     802
151.7400     810
151.7600     793
151.7800     785
151.8000     869
151.8200     975
151.8400    1013
151.8600    1018
151.8800     999
151.9000     969
151.9200     924
151.9400     886
151.9600     910
151.9800     950
152.0000     948
152.0200     942
152.0400     996
152.0600    1059
152.0800    1047
152.1000    1013
152.1200    1021
152.1400    1044
152.1600    1062
152.1800    1077
152.2000    1089
152.2200    1099
152.2400    1114
152.2600    1142
152.2800    1228
152.3000    1303
152.3200    1205
152.3400    1078
152.3600    1156
152.3800    1296
152.4000    1338
152.4200    1334
152.4400    1300
152.4600    1267
152.4800    1300
152.5000    1364
152.5200    1448
152.5400    1522
152.5600    1503
152.5800    1437
152.6000    1324
152.6200    1227
152.6400    1305
152.6600    1429
152.6800    1430
152.7000    1397
152.7200    1439
152.7400    1511
152.7600    1583
152.7800    1649
152.8000    1687
152.8200    1701
152.8400    1660
152.8600    1613
152.8800    1654
152.9000    1728
152.9200    1792
152.9400    1850
152.9600    1895
152.9800    1921
153.0000    1877
153.0200    1816
153.0400    1812
153.0600    1827
153.0800    1827
153.1000    1842
153.1200    1963
153.1400    2103
153.1600    2120
153.1800    2098
153.2000    2126
153.2200    2157
153.2400    2106
153.2600    2044
153.2800    2089
153.3000    2187
153.3200    2335
153.3400    2468
153.3600    2428
153.3800    2336
153.4000    2337
153.4200    2366
153.4400    2347
153.4600    2322
153.4800    2367
153.5000    2442
153.5200    2532
153.5400    2612
153.5600    2615
153.5800    2607
153.6000    2698
153.6200    2777
153.6400    2601
153.6600    2379
153.6800    2437
153.7000    2589
153.7200    2656
153.7400    2666
153.7600    2564
153.7800    2450
153.8000    2498
153.8200    2601
153.8400    2659
153.8600    2688
153.8800    2664
153.9000    2628
153.9200    2642
153.9400    2669
153.9600    2661
153.9800    2646
154.0000    2669
154.0200    2716
154.0400    2808
154.0600    2887
154.0800    2813
154.1000    2694
154.1200    2660
154.1400    2665
154.1600    2697
154.1800    2716
154.2000    2623
154.2200    2515
154.2400    2557
154.2600    2637
154.2800    2607
154.3000    2547
154.3200    2555
154.3400    2585
154.3600    2582
154.3800    2578
154.4000    2634
154.4200    2707
154.4400    2748
154.4600    2748
154.4800    2607
154.5000    2445
154.5200    2468
154.5400    2548
154.5600    2551
154.5800    2533
154.6000    2564
154.6200    2615
154.6400    2672
154.6600    2694
154.6800    2521
154.7000    2317
154.7200    2345
154.7400    2444
154.7600    2441
154.7800    2386
154.8000    2273
154.8200    2158
154.8400    2148
154.8600    2179
154.8800    2205
154.9000    2225
154.9200    2227
154.9400    2215
154.9600    2173
154.9800    2130
155.0000    2147
155.0200    2190
155.0400    2250
155.0600    2281
155.0800    2140
155.1000    1963
155.1200    1951
155.1400    1986
155.1600    1923
155.1800    1833
155.2000    1806
155.2200    1814
155.2400    1872
155.2600    1925
155.2800    1851
155.3000    1747
155.3200    1743
155.3400    1779
155.3600    1812
155.3800    1827
155.4000    1757
155.4200    1676
155.4400    1708
155.4600    1768
155.4800    1736
155.5000    1680
155.5200    1683
155.5400    1691
155.5600    1612
155.5800    1518
155.6000    1521
155.6200    1574
155.6400    1683
155.6600    1768
155.6800    1618
155.7000    1428
155.7200    1503
155.7400    1649
155.7600    1613
155.7800    1519
155.8000    1495
155.8200    1486
155.8400    1411
155.8600    1330
155.8800    1359
155.9000    1411
155.9200    1363
155.9400    1286
155.9600    1267
155.9800    1268
156.0000    1253
156.0200    1237
156.0400    1256
156.0600    1279
156.0800    1259
156.1000    1226
156.1200    1223
156.1400    1229
156.1600    1225
156.1800    1223
156.2000    1249
156.2200    1267
156.2400    1182
156.2600    1071
156.2800    1035
156.3000    1041
156.3200    1107
156.3400    1173
156.3600    1119
156.3800    1035
156.4000    1044
156.4200    1073
156.4400    1019
156.4600     945
156.4800     944
156.5000     974
156.5200    1013
156.5400    1036
156.5600     969
156.5800     887
156.6000     913
156.6200     960
156.6400     889
156.6600     791
156.6800     796
156.7000     840
156.7200     872
156.7400     889
156.7600     846
156.7800     793
156.8000     805
156.8200     842
156.8400     871
156.8600     879
156.8800     800
156.9000     704
156.9200     695
156.9400     715
156.9600     708
156.9800     695
157.0000     707
157.0200     727
157.0400     739
157.0600     755
157.0800     813
157.1000     871
157.1200     850
157.1400     798
157.1600     743
157.1800     701
157.2000     729
157.2200     782
157.2400     820
157.2600     841
157.2800     810
157.3000     765
157.3200     755
157.3400     753
157.3600     721
157.3800     677
157.4000     628
157.4200     593
157.4400     635
157.4600     691
157.4800     667
157.5000     625
157.5200     656
157.5400     709
157.5600     722
157.5800     706
157.6000     618
157.6200     520
157.6400     507
157.6600     528
157.6800     542
157.7000     551
157.7200     545
157.7400     542
157.7600     583
157.7800     642
157.8000     711
157.8200     763
157.8400     715
157.8600     637
157.8800     609
157.9000     597
157.9200     568
157.9400     543
157.9600     568
157.9800     599
158.0000     557
158.0200     499
158.0400     514
158.0600     553
158.0800     562
158.1000     564
158.1200     583
158.1400     602
158.1600     587
158.1800     561
158.2000     544
158.2200     530
158.2400     519
158.2600     512
158.2800     522
158.3000     534
158.3200     529
158.3400     523
158.3600     542
158.3800     567
158.4000     564
158.4200     548
158.4400     527
158.4600     504
158.4800     488
158.5000     473
158.5200     454
158.5400     438
158.5600     439
158.5800     443
158.6000     430
158.6200     430
158.6400     525
158.6600     631
158.6800     597
158.7000     519
158.7200     501
158.7400     509
158.7600     524
158.7800     532
158.8000     490
158.8200     444
158.8400     481
158.8600     538
158.8800     532
158.9000     500
158.9200     468
158.9400     443
158.9600     453
158.9800     476
159.0000     497
159.0200     506
159.0400     459
159.0600     404
159.0800     424
159.1000     463
159.1200     447
159.1400     406
159.1600     355
159.1800     321
159.2000     395
159.2200     494
159.2400     498
159.2600     469
159.2800     465
159.3000     471
159.3200     475
159.3400     469
159.3600     412
159.3800     349
159.4000     364
159.4200     398
159.4400     372
159.4600     336
159.4800     367
159.5000     416
159.5200     421
159.5400     409
159.5600     397
159.5800     388
159.6000     391
159.6200     398
159.6400     403
159.6600     409
159.6800     425
159.7000     435
159.7200     394
159.7400     336
159.7600     299
159.7800     285
159.8000     336
159.8200     410
159.8400     461
159.8600     488
159.8800     441
159.9000     379
159.9200     386
159.9400     415
159.9600     420
159.9800     410
160.0000     365
160.0200     317
160.0400     321
160.0600     346
160.0800     379
160.1000     413
160.1200     437
160.1400     447
160.1600     407
160.1800     351
160.2000     315
160.2200     292
160.2400     293
160.2600     307
160.2800     346
160.3000     389
160.3200     407
160.3400     410
160.3600     390
160.3800     362
160.4000     347
160.4200     337
160.4400     325
160.4600     317
160.4800     329
160.5000     334
160.5200     259
160.5400     186
160.5600     275
160.5800     399
160.6000     374
160.6200     306
160.6400     315
160.6600     360
160.6800     432
160.7000     499
160.7200     494
160.7400     461
160.7600     431
160.7800     407
160.8000     400
160.8200     403
160.8400     423
160.8600     436
160.8800     384
160.9000     317
160.9200     308
160.9400     326
160.9600     364
160.9800     397
161.0000     363
161.0200     314
161.0400     315
161.0600     341
161.0800     385
161.1000     432
161.1200     454
161.1400     458
161.1600     417
161.1800     363
161.2000     327
161.2200     305
161.2400     308
161.2600     325
161.2800     359
161.3000     389
161.3200     371
161.3400     336
161.3600     317
161.3800     309
161.4000     320
161.4200     341
161.4400     382
161.4600     417
161.4800     387
161.5000     335
161.5200     306
161.5400     293
161.5600     315
161.5800     345
161.6000     342
161.6200     327
161.6400     317
161.6600     320
161.6800     381
161.7000     446
161.7200     415
161.7400     351
161.7600     318
161.7800     300
161.8000     292
161.8200     292
161.8400     307
161.8600     329
161.8800     348
161.9000     360
161.9200     345
161.9400     325
161.9600     337
161.9800     344
162.0000     268
162.0200     181
162.0400     212
162.0600     289
162.0800     361
162.1000     419
162.1200     419
162.1400     389
162.1600     329
162.1800     267
162.2000     258
162.2200     282
162.2400     365
162.2600     454
162.2800     458
162.3000     431
162.3200     424
162.3400     421
162.3600     406
162.3800     385
162.4000     354
162.4200     329
162.4400     351
162.4600     380
162.4800     354
162.5000     310
162.5200     288
162.5400     281
162.5600     312
162.5800     338
162.6000     264
162.6200     173
162.6400     197
162.6600     255
162.6800     251
162.7000     230
162.7200     243
162.7400     265
162.7600     268
162.7800     264
162.8000     259
162.8200     267
162.8400     348
162.8600     440
162.8800     440
162.9000     406
162.9200     382
162.9400     370
162.9600     398
162.9800     424
163.0000     359
163.0200     266
163.0400     221
163.0600     207
163.0800     251
163.1000     309
163.1200     312
163.1400     302
163.1600     330
163.1800     367
163.2000     369
163.2200     348
163.2400     282
163.2600     223
163.2800     286
163.3000     371
163.3200     321
163.3400     235
163.3600     242
163.3800     276
163.4000     255
163.4200     210
163.4400     152
163.4600     113
163.4800     201
163.5000     319
163.5200     342
163.5400     328
163.5600     322
163.5800     315
163.6000     285
163.6200     248
163.6400     224
163.6600     220
163.6800     284
163.7000     354
163.7200     314
163.7400     243
163.7600     234
163.7800     259
163.8000     329
163.8200     398
163.8400     370
163.8600     312
163.8800     292
163.9000     291
163.9200     300
163.9400     307
163.9600     279
163.9800     240
164.0000     213
164.0200     198
164.0400     218
164.0600     247
164.0800     252
164.1000     251
164.1200     262
164.1400     282
164.1600     324
164.1800     363
164.2000     350
164.2200     314
164.2400     265
164.2600     228
164.2800     279
164.3000     350
164.3200     346
164.3400     317
164.3600     311
164.3800     311
164.4000     286
164.4200     268
164.4400     327
164.4600     392
164.4800     335
164.5000     243
164.5200     219
164.5400     223
164.5600     222
164.5800     219
164.6000     211
164.6200     200
164.6400     186
164.6600     188
164.6800     278
164.7000     378
164.7200     350
164.7400     282
164.7600     274
164.7800     283
164.8000     259
164.8200     228
164.8400     233
164.8600     250
164.8800     247
164.9000     241
164.9200     252
164.9400     272
164.9600     305
164.9800     334