File: XRD_Tool/XRD_Tool/bin/Debug/LDA_sample_name_56789_Psi-0_20180623-122735.txt
138.0000     277
138.0200     254
138.0400     201
138.0600     152
138.0800     178
138.1000     227
138.1200     241
138.1400     235
138.1600     197
138.1800     162
138.2000     199
138.2200     256
138.2400     270
138.2600     260
138.2800     220
138.3000     179
138.3200     194
138.3400     223
138.3600     207
138.3800     181
138.4000     195
138.4200     230
138.4400     289
138.4600     337
138.4800     288
138.5000     214
138.5200     212
138.5400     244
138.5600     308
138.5800     366
138.6000     335
138.6200     278
138.6400     263
138.6600     256
138.6800     206
138.7000     153
138.7200     178
138.7400     228
138.7600     245
138.7800     246
138.8000     237
138.8200     225
138.8400     225
138.8600     223
138.8800     192
138.9000     154
138.9200     136
138.9400     134
138.9600     169
138.9800     211
139.0000     211
139.0200     197
139.0400     193
139.0600     205
139.0800     279
139.1000     348
139.1200     272
139.1400     158
139.1600     142
139.1800     169
139.2000     208
139.2200     249
139.2400     278
139.2600     305
139.2800     345
139.3000     378
139.3200     341
139.3400     277
139.3600     211
139.3800     165
139.4000     219
139.4200     298
139.4400     297
139.4600     271
139.4800     275
139.5000     288
139.5200     284
139.5400     268
139.5600     222
139.5800     175
139.6000     182
139.6200     204
139.6400     196
139.6600     181
139.6800     196
139.7000     228
139.7200     292
139.7400     348
139.7600     309
139.7800     236
139.8000     191
139.8200     170
139.8400     214
139.8600     273
139.8800     274
139.9000     251
139.9200     221
139.9400     202
139.9600     245
139.9800     298
140.0000     281
140.0200     244
140.0400     252
140.0600     269
140.0800     244
140.1000     213
140.1200     232
140.1400     269
140.1600     288
140.1800     293
140.2000     268
140.2200     236
140.2400     237
140.2600     254
140.2800     281
140.3000     301
140.3200     261
140.3400     211
140.3600     233
140.3800     279
140.4000     307
140.4200     318
140.4400     285
140.4600     245
140.4800     254
140.5000     286
140.5200     343
140.5400     394
140.5600     373
140.5800     324
140.6000     277
140.6200     245
140.6400     281
140.6600     329
140.6800     299
140.7000     248
140.7200     254
140.7400     275
140.7600     262
140.7800     243
140.8000     258
140.8200     282
140.8400     286
140.8600     286
140.8800     309
140.9000     331
140.9200     301
140.9400     262
140.9600     273
140.9800     303
141.0000     320
141.0200     323
141.0400     286
141.0600     238
141.0800     218
141.1000     219
141.1200     267
141.1400     327
141.1600     355
141.1800     371
141.2000     387
141.2200     387
141.2400     307
141.2600     210
141.2800     188
141.3000     206
141.3200     274
141.3400     343
141.3600     319
141.3800     268
141.4000     270
141.4200     292
141.4400     302
141.4600     309
141.4800     320
141.5000     321
141.5200     272
141.5400     209
141.5600     183
141.5800     179
141.6000     215
141.6200     262
141.6400     289
141.6600     301
141.6800     286
141.7000     255
141.7200     198
141.7400     142
141.7600     146
141.7800     173
141.8000     198
141.8200     224
141.8400     262
141.8600     289
141.8800     241
141.9000     185
141.9200     239
141.9400     319
141.9600     312
141.9800     273
142.0000     246
142.0200     225
142.0400     209
142.0600     200
142.0800     218
142.1000     242
142.1200     246
142.1400     248
142.1600     281
142.1800     322
142.2000     337
142.2200     336
142.2400     315
142.2600     290
142.2800     292
142.3000     311
142.3200     365
142.3400     415
142.3600     378
142.3800     322
142.4000     343
142.4200     389
142.4400     406
142.4600     401
142.4800     340
142.5000     268
142.5200     259
142.5400     274
142.5600     284
142.5800     292
142.6000     300
142.6200     311
142.6400     334
142.6600     344
142.6800     267
142.7000     177
142.7200     194
142.7400     251
142.7600     294
142.7800     322
142.8000     297
142.8200     259
142.8400     263
142.8600     286
142.8800     325
142.9000     359
142.9200     330
142.9400     290
142.9600     320
142.9800     362
143.0000     322
143.0200     275
143.0400     351
143.0600     450
143.0800     413
143.1000     325
143.1200     260
143.1400     219
143.1600     255
143.1800     312
143.2000     324
143.2200     315
143.2400     294
143.2600     280
143.2800     323
143.3000     376
143.3200     367
143.3400     339
143.3600     341
143.3800     347
143.4000     308
143.4200     266
143.4400     296
143.4600     340
143.4800     312
143.5000     264
143.5200     256
143.5400     261
143.5600     253
143.5800     238
143.6000     221
143.6200     213
143.6400     254
143.6600     302
143.6800     295
143.7000     270
143.7200     273
143.7400     293
143.7600     342
143.7800     393
143.8000     404
143.8200     393
143.8400     360
143.8600     319
143.8800     280
143.9000     252
143.9200     274
143.9400     317
143.9600     368
143.9800     410
144.0000     387
144.0200     344
144.0400     323
144.0600     311
144.0800     300
144.1000     298
144.1200     335
144.1400     375
144.1600     356
144.1800     322
144.2000     328
144.2200     346
144.2400     344
144.2600     326
144.2800     268
144.3000     213
144.3200     248
144.3400     312
144.3600     336
144.3800     342
144.4000     336
144.4200     323
144.4400     295
144.4600     279
144.4800     352
144.5000     431
144.5200     366
144.5400     266
144.5600     275
144.5800     332
144.6000     414
144.6200     479
144.6400     409
144.6600     309
144.6800     332
144.7000     397
144.7200     425
144.7400     427
144.7600     369
144.7800     297
144.8000     275
144.8200     276
144.8400     287
144.8600     301
144.8800     307
144.9000     305
144.9200     281
144.9400     254
144.9600     252
144.9800     259
145.0000     261
145.0200     263
145.0400     275
145.0600     280
145.0800     230
145.1000     173
145.1200     191
145.1400     239
145.1600     285
145.1800     327
145.2000     346
145.2200     351
145.2400     329
145.2600     308
145.2800     339
145.3000     383
145.3200     390
145.3400     383
145.3600     378
145.3800     371
145.4000     354
145.4200     333
145.4400     319
145.4600     316
145.4800     363
145.5000     412
145.5200     376
145.5400     323
145.5600     355
145.5800     406
145.6000     384
145.6200     340
145.6400     336
145.6600     347
145.6800     356
145.7000     365
145.7200     381
145.7400     386
145.7600     326
145.7800     262
145.8000     310
145.8200     388
145.8400     397
145.8600     374
145.8800     325
145.9000     275
145.9200     278
145.9400     299
145.9600     307
145.9800     303
146.0000     269
146.0200     240
146.0400     294
146.0600     357
146.0800     292
146.1000     206
146.1200     271
146.1400     379
146.1600     394
146.1800     371
146.2000     341
146.2200     311
146.2400     289
146.2600     269
146.2800     238
146.3000     208
146.3200     211
146.3400     234
146.3600     289
146.3800     340
146.4000     307
146.4200     251
146.4400     244
146.4600     264
146.4800     324
146.5000     382
146.5200     350
146.5400     295
146.5600     306
146.5800     337
146.6000     333
146.6200     318
146.6400     317
146.6600     319
146.6800     316
146.7000     317
146.7200     356
146.7400     395
146.7600     354
146.7800     293
146.8000     287
146.8200     307
146.8400     347
146.8600     385
146.8800     371
146.9000     346
146.9200     361
146.9400     389
146.9600     394
146.9800     381
147.0000     326
147.0200     261
147.0400     229
147.0600     221
147.0800     262
147.1000     316
147.1200     345
147.1400     364
147.1600     390
147.1800     406
147.2000     367
147.2200     309
147.2400     269
147.2600     246
147.2800     270
147.3000     302
147.3200     287
147.3400     266
147.3600     305
147.3800     358
147.4000     354
147.4200     330
147.4400     313
147.4600     303
147.4800     315
147.5000     329
147.5200     313
147.5400     289
147.5600     286
147.5800     288
147.6000     270
147.6200     246
147.6400     232
147.6600     235
147.6800     298
147.7000     368
147.7200     345
147.7400     298
147.7600     319
147.7800     361
147.8000     370
147.8200     367
147.8400     369
147.8600     366
147.8800     333
147.9000     301
147.9200     341
147.9400     397
147.9600     394
147.9800     361
148.0000     290
148.0200     226
148.0400     274
148.0600     355
148.0800     382
148.1000     384
148.1200     361
148.1400     350
148.1600     442
148.1800     555
148.2000     560
148.2200     526
148.2400     514
148.2600     505
148.2800     471
148.3000     434
148.3200     433
148.3400     439
148.3600     405
148.3800     357
148.4000     316
148.4200     292
148.4400     336
148.4600     402
148.4800     436
148.5000     452
148.5200     435
148.5400     409
148.5600     405
148.5800     407
148.6000     402
148.6200     404
148.6400     453
148.6600     499
148.6800     435
148.7000     344
148.7200     343
148.7400     359
148.7600     285
148.7800     206
148.8000     284
148.8200     406
148.8400     443
148.8600     441
148.8800     422
148.9000     403
148.9200     419
148.9400     444
148.9600     439
148.9800     419
149.0000     381
149.0200     348
149.0400     382
149.0600     430
149.0800     423
149.1000     395
149.1200     379
149.1400     371
149.1600     386
149.1800     411
149.2000     438
149.2200     462
149.2400     466
149.2600     464
149.2800     475
149.3000     484
149.3200     455
149.3400     421
149.3600     440
149.3800     473
149.4000     471
149.4200     458
149.4400     458
149.4600     465
149.4800     477
149.5000     488
149.5200     484
149.5400     476
149.5600     477
149.5800     479
149.6000     474
149.6200     471
149.6400     493
149.6600     513
149.6800     475
149.7000     426
149.7200     440
149.7400     476
149.7600     490
149.7800     493
149.8000     480
149.8200     467
149.8400     490
149.8600     519
149.8800     503
149.9000     476
149.9200     484
149.9400     501
149.9600     488
149.9800     467
150.0000     459
150.0200     466
150.0400     515
150.0600     565
150.0800     533
150.1000     472
150.1200     428
150.1400     399
150.1600     418
150.1800     452
150.2000     463
150.2200     465
150.2400     469
150.2600     474
150.2800     487
150.3000     505
150.3200     533
150.3400     558
150.3600     546
150.3800     524
150.4000     522
150.4200     528
150.4400     529
150.4600     532
150.4800     548
150.5000     561
150.5200     526
150.5400     487
150.5600     521
150.5800     570
150.6000     544
150.6200     498
150.6400     504
150.6600     529
150.6800     552
150.7000     576
150.7200     607
150.7400     624
150.7600     559
150.7800     477
150.8000     470
150.8200     499
150.8400     555
150.8600     614
150.8800     638
150.9000     645
150.9200     635
150.9400     613
150.9600     559
150.9800     500
151.0000     475
151.0200     483
151.0400     592
151.0600     710
151.0800     665
151.1000     577
151.1200     601
151.1400     666
151.1600     721
151.1800     757
151.2000     721
151.2200     663
151.2400     633
151.2600     617
151.2800     608
151.3000     603
151.3200     603
151.3400     616
151.3600     686
151.3800     762
151.4000     758
151.4200     730
151.4400     742
151.4600     765
151.4800     764
151.5000     759
151.5200     779
151.5400     791
151.5600     712
151.5800     622
151.6000     665
151.6200     753
151.6400     798
151.6600     812
151.6800     759
151.7000     696
151.7200     718
151.7400     778
151.7600     856
151.7800     926
151.8000     915
151.8200     882
151.8400     909
151.8600     948
151.8800     935
151.9000     912
151.9200     941
151.9400     987
151.9600    1011
151.9800    1020
152.0000     992
152.0200     957
152.0400     954
152.0600     971
152.0800    1025
152.1000    1083
152.1200    1092
152.1400    1073
152.1600    1008
152.1800     937
152.2000     936
152.2200     963
152.2400     993
152.2600    1025
152.2800    1057
152.3000    1086
152.3200    1097
152.3400    1101
152.3600    1110
152.3800    1124
152.4000    1161
152.4200    1192
152.4400    1148
152.4600    1093
152.4800    1132
152.5000    1222
152.5200    1383
152.5400    1543
152.5600    1550
152.5800    1503
152.6000    1494
152.6200    1500
152.6400    1501
152.6600    1499
152.6800    1487
152.7000    1478
152.7200    1504
152.7400    1539
152.7600    1547
152.7800    1552
152.8000    1591
152.8200    1635
152.8400    1642
152.8600    1642
152.8800    1684
152.9000    1736
152.9200    1760
152.9400    1779
152.9600    1836
152.9800    1885
153.0000    1816
153.0200    1721
153.0400    1732
153.0600    1780
153.0800    1793
153.1000    1800
153.1200    1840
153.1400    1891
153.1600    1927
153.1800    1977
153.2000    2124
153.2200    2271
153.2400    2225
153.2600    2119
153.2800    2108
153.3000    2125
153.3200    2099
153.3400    2071
153.3600    2126
153.3800    2215
153.4000    2307
153.4200    2376
153.4400    2319
153.4600    2218
153.4800    2157
153.5000    2129
153.5200    2189
153.5400    2280
153.5600    2348
153.5800    2416
153.6000    2537
153.6200    2642
153.6400    2559
153.6600    2448
153.6800    2570
153.7000    2767
153.7200    2867
153.7400    2892
153.7600    2727
153.7800    2524
153.8000    2506
153.8200    2561
153.8400    2613
153.8600    2644
153.8800    2580
153.9000    2501
153.9200    2537
153.9400    2595
153.9600    2536
153.9800    2457
154.0000    2512
154.0200    2596
154.0400    2561
154.0600    2507
154.0800    2590
154.1000    2705
154.1200    2703
154.1400    2666
154.1600    2681
154.1800    2704
154.2000    2662
154.2200    2591
154.2400    2506
154.2600    2431
154.2800    2430
154.3000    2457
154.3200    2482
154.3400    2498
154.3600    2474
154.3800    2442
154.4000    2450
154.4200    2460
154.4400    2398
154.4600    2349
154.4800    2502
154.5000    2702
154.5200    2730
154.5400    2685
154.5600    2615
154.5800    2542
154.6000    2504
154.6200    2476
154.6400    2428
154.6600    2389
154.6800    2432
154.7000    2484
154.7200    2416
154.7400    2304
154.7600    2212
154.7800    2145
154.8000    2166
154.8200    2208
154.8400    2177
154.8600    2133
154.8800    2172
154.9000    2239
154.9200    2281
154.9400    2299
154.9600    2247
154.9800    2171
155.0000    2115
155.0200    2080
155.0400    2110
155.0600    2138
155.0800    2024
155.1000    1884
155.1200    1893
155.1400    1935
155.1600    1848
155.1800    1742
155.2000    1791
155.2200    1880
155.2400    1854
155.2600    1787
155.2800    1747
155.3000    1729
155.3200    1773
155.3400    1829
155.3600    1828
155.3800    1798
155.4000    1735
155.4200    1667
155.4400    1642
155.4600    1651
155.4800    1742
155.5000    1829
155.5200    1732
155.5400    1582
155.5600    1527
155.5800    1514
155.6000    1516
155.6200    1514
155.6400    1462
155.6600    1398
155.6800    1376
155.7000    1372
155.7200    1381
155.7400    1393
155.7600    1390
155.7800    1376
155.8000    1330
155.8200    1299
155.8400    1403
155.8600    1523
155.8800    1452
155.9000    1325
155.9200    1304
155.9400    1318
155.9600    1289
155.9800    1253
156.0000    1265
156.0200    1286
156.0400    1249
156.0600    1196
156.0800    1179
156.1000    1171
156.1200    1133
156.1400    1092
156.1600    1093
156.1800    1105
156.2000    1085
156.2200    1043
156.2400     953
156.2600     868
156.2800     908
156.3000     985
156.3200     995
156.3400     974
156.3600     930
156.3800     892
156.4000     932
156.4200     995
156.4400    1010
156.4600    1012
156.4800    1045
156.5000    1075
156.5200    1024
156.5400     953
156.5600     950
156.5800     961
156.6000     909
156.6200     841
156.6400     823
156.6600     831
156.6800     867
156.7000     894
156.7200     816
156.7400     714
156.7600     699
156.7800     728
156.8000     803
156.8200     884
156.8400     895
156.8600     866
156.8800     774
156.9000     681
156.9200     715
156.9400     786
156.9600     797
156.9800     777
157.0000     730
157.0200     681
157.0400     677
157.0600     695
157.0800     728
157.1000     753
157.1200     700
157.1400     629
157.1600     624
157.1800     644
157.2000     653
157.2200     662
157.2400     696
157.2600     728
157.2800     705
157.3000     666
157.3200     662
157.3400     668
157.3600     657
157.3800     640
157.4000     627
157.4200     615
157.4400     603
157.4600     597
157.4800     621
157.5000     644
157.5200     602
157.5400     547
157.5600     558
157.5800     583
157.6000     542
157.6200     491
157.6400     525
157.6600     590
157.6800     643
157.7000     680
157.7200     659
157.7400     615
157.7600     576
157.7800     542
157.8000     531
157.8200     539
157.8400     596
157.8600     657
157.8800     646
157.9000     619
157.9200     654
157.9400     700
157.9600     679
157.9800     626
158.0000     548
158.0200     485
158.0400     544
158.0600     625
158.0800     576
158.1000     488
158.1200     470
158.1400     480
158.1600     492
158.1800     501
158.2000     495
158.2200     497
158.2400     570
158.2600     649
158.2800     612
158.3000     530
158.3200     458
158.3400     411
158.3600     474
158.3800     565
158.4000     583
158.4200     566
158.4400     525
158.4600     474
158.4800     413
158.5000     364
158.5200     387
158.5400     427
158.5600     410
158.5800     387
158.6000     451
158.6200     535
158.6400     552
158.6600     532
158.6800     461
158.7000     394
158.7200     453
158.7400     547
158.7600     561
158.7800     536
158.8000     475
158.8200     414
158.8400     428
158.8600     466
158.8800     477
158.9000     474
158.9200     458
158.9400     435
158.9600     407
158.9800     387
159.0000     417
159.0200     452
159.0400     410
159.0600     354
159.0800     380
159.1000     425
159.1200     407
159.1400     376
159.1600     415
159.1800     469
159.2000     465
159.2200     437
159.2400     414
159.2600     395
159.2800     391
159.3000     395
159.3200     407
159.3400     420
159.3600     418
159.3800     415
159.4000     439
159.4200     470
159.4400     488
159.4600     490
159.4800     445
159.5000     388
159.5200     368
159.5400     366
159.5600     387
159.5800     415
159.6000     433
159.6200     447
159.6400     456
159.6600     462
159.6800     460
159.7000     451
159.7200     430
159.7400     410
159.7600     415
159.7800     421
159.8000     374
159.8200     317
159.8400     320
159.8600     344
159.8800     356
159.9000     362
159.9200     355
159.9400     343
159.9600     332
159.9800     319
160.0000     288
160.0200     263
160.0400     305
160.0600     370
160.0800     420
160.1000     450
160.1200     410
160.1400     350
160.1600     331
160.1800     334
160.2000     357
160.2200     388
160.2400     416
160.2600     433
160.2800     405
160.3000     364
160.3200     346
160.3400     347
160.3600     395
160.3800     443
160.4000     404
160.4200     339
160.4400     314
160.4600     308
160.4800     314
160.5000     332
160.5200     390
160.5400     453
160.5600     464
160.5800     443
160.6000     364
160.6200     279
160.6400     277
160.6600     306
160.6800     320
160.7000     331
160.7200     354
160.7400     374
160.7600     355
160.7800     328
160.8000     336
160.8200     352
160.8400     337
160.8600     316
160.8800     333
160.9000     367
160.9200     408
160.9400     435
160.9600     380
160.9800     310
161.0000     328
161.0200     367
161.0400     331
161.0600     274
161.0800     262
161.1000     272
161.1200     302
161.1400     339
161.1600     368
161.1800     382
161.2000     338
161.2200     285
161.2400     308
161.2600     349
161.2800     325
161.3000     289
161.3200     323
161.3400     379
161.3600     402
161.3800     403
161.4000     362
161.4200     315
161.4400     320
161.4600     347
161.4800     377
161.5000     392
161.5200     319
161.5400     223
161.5600     187
161.5800     184
161.6000     227
161.6200     282
161.6400     301
161.6600     309
161.6800     342
161.7000     381
161.7200     405
161.7400     417
161.7600     401
161.7800     367
161.8000     306
161.8200     241
161.8400     211
161.8600     198
161.8800     197
161.9000     202
161.9200     215
161.9400     230
161.9600     238
161.9800     242