File: XRD_Tool/XRD_Tool/bin/Debug/LDA_sample_name_56789_Psi-24_20180623-125518.txt
138.0000     100
138.0200     113
138.0400     164
138.0600     212
138.0800     170
138.1000     107
138.1200     118
138.1400     150
138.1600     145
138.1800     131
138.2000     145
138.2200     166
138.2400     161
138.2600     150
138.2800     164
138.3000     189
138.3200     224
138.3400     245
138.3600     179
138.3800      97
138.4000     105
138.4200     144
138.4400     156
138.4600     166
138.4800     215
138.5000     270
138.5200     280
138.5400     266
138.5600     223
138.5800     176
138.6000     163
138.6200     166
138.6400     184
138.6600     203
138.6800     197
138.7000     191
138.7200     235
138.7400     283
138.7600     256
138.7800     202
138.8000     168
138.8200     145
138.8400     135
138.8600     134
138.8800     150
138.9000     178
138.9200     234
138.9400     281
138.9600     220
138.9800     137
139.0000     162
139.0200     216
139.0400     202
139.0600     164
139.0800     144
139.1000     135
139.1200     143
139.1400     153
139.1600     143
139.1800     128
139.2000     130
139.2200     138
139.2400     146
139.2600     151
139.2800     142
139.3000     134
139.3200     156
139.3400     186
139.3600     196
139.3800     197
139.4000     190
139.4200     180
139.4400     170
139.4600     160
139.4800     148
139.5000     138
139.5200     138
139.5400     143
139.5600     150
139.5800     165
139.6000     216
139.6200     265
139.6400     229
139.6600     172
139.6800     177
139.7000     203
139.7200     212
139.7400     204
139.7600     141
139.7800      77
139.8000     110
139.8200     173
139.8400     192
139.8600     199
139.8800     228
139.9000     252
139.9200     208
139.9400     143
139.9600     116
139.9800     111
140.0000     143
140.0200     184
140.0400     203
140.0600     219
140.0800     265
140.1000     305
140.1200     254
140.1400     177
140.1600     156
140.1800     163
140.2000     192
140.2200     223
140.2400     222
140.2600     205
140.2800     170
140.3000     132
140.3200     117
140.3400     120
140.3600     167
140.3800     222
140.4000     233
140.4200     227
140.4400     216
140.4600     207
140.4800     213
140.5000     230
140.5200     274
140.5400     311
140.5600     263
140.5800     191
140.6000     169
140.6200     166
140.6400     160
140.6600     165
140.6800     235
140.7000     311
140.7200     288
140.7400     238
140.7600     247
140.7800     271
140.8000     260
140.8200     238
140.8400     238
140.8600     244
140.8800     241
140.9000     241
140.9200     268
140.9400     292
140.9600     249
140.9800     191
141.0000     190
141.0200     205
141.0400     185
141.0600     158
141.0800     164
141.1000     176
141.1200     146
141.1400     113
141.1600     142
141.1800     191
141.2000     217
141.2200     228
141.2400     215
141.2600     198
141.2800     205
141.3000     223
141.3200     252
141.3400     273
141.3600     228
141.3800     162
141.4000     126
141.4200     108
141.4400     121
141.4600     143
141.4800     145
141.5000     147
141.5200     186
141.5400     229
141.5600     220
141.5800     190
141.6000     157
141.6200     126
141.6400     108
141.6600     104
141.6800     142
141.7000     191
141.7200     218
141.7400     233
141.7600     233
141.7800     229
141.8000     230
141.8200     228
141.8400     196
141.8600     162
141.8800     178
141.9000     211
141.9200     231
141.9400     243
141.9600     247
141.9800     242
142.0000     217
142.0200     194
142.0400     224
142.0600     271
142.0800     290
142.1000     292
142.1200     267
142.1400     233
142.1600     207
142.1800     185
142.2000     163
142.2200     149
142.2400     174
142.2600     212
142.2800     240
142.3000     259
142.3200     258
142.3400     251
142.3600     259
142.3800     260
142.4000     199
142.4200     134
142.4400     174
142.4600     247
142.4800     274
142.5000     279
142.5200     272
142.5400     265
142.5600     280
142.5800     297
142.6000     282
142.6200     263
142.6400     289
142.6600     328
142.6800     344
142.7000     341
142.7200     293
142.7400     238
142.7600     240
142.7800     256
142.8000     233
142.8200     206
142.8400     231
142.8600     263
142.8800     223
142.9000     176
142.9200     231
142.9400     311
142.9600     314
142.9800     296
143.0000     328
143.0200     371
143.0400     367
143.0600     346
143.0800     330
143.1000     317
143.1200     306
143.1400     299
143.1600     310
143.1800     323
143.2000     306
143.2200     282
143.2400     278
143.2600     283
143.2800     293
143.3000     301
143.3200     287
143.3400     268
143.3600     264
143.3800     272
143.4000     305
143.4200     334
143.4400     290
143.4600     230
143.4800     242
143.5000     277
143.5200     288
143.5400     288
143.5600     275
143.5800     255
143.6000     225
143.6200     199
143.6400     213
143.6600     241
143.6800     257
143.7000     264
143.7200     246
143.7400     228
143.7600     262
143.7800     305
143.8000     293
143.8200     269
143.8400     295
143.8600     333
143.8800     333
143.9000     316
143.9200     294
143.9400     279
143.9600     314
143.9800     352
144.0000     308
144.0200     244
144.0400     238
144.0600     252
144.0800     246
144.1000     239
144.1200     262
144.1400     298
144.1600     332
144.1800     354
144.2000     315
144.2200     257
144.2400     234
144.2600     224
144.2800     216
144.3000     215
144.3200     252
144.3400     295
144.3600     293
144.3800     278
144.4000     286
144.4200     303
144.4400     315
144.4600     319
144.4800     288
144.5000     259
144.5200     303
144.5400     364
144.5600     357
144.5800     326
144.6000     312
144.6200     307
144.6400     322
144.6600     335
144.6800     305
144.7000     256
144.7200     205
144.7400     169
144.7600     210
144.7800     272
144.8000     289
144.8200     292
144.8400     323
144.8600     352
144.8800     311
144.9000     258
144.9200     280
144.9400     324
144.9600     330
144.9800     317
145.0000     291
145.0200     268
145.0400     293
145.0600     328
145.0800     316
145.1000     294
145.1200     307
145.1400     321
145.1600     265
145.1800     208
145.2000     283
145.2200     382
145.2400     336
145.2600     246
145.2800     226
145.3000     241
145.3200     294
145.3400     355
145.3600     381
145.3800     386
145.4000     356
145.4200     324
145.4400     350
145.4600     385
145.4800     345
145.5000     288
145.5200     295
145.5400     325
145.5600     348
145.5800     363
145.6000     350
145.6200     330
145.6400     331
145.6600     333
145.6800     295
145.7000     246
145.7200     222
145.7400     216
145.7600     250
145.7800     299
145.8000     342
145.8200     373
145.8400     360
145.8600     334
145.8800     327
145.9000     329
145.9200     344
145.9400     348
145.9600     270
145.9800     179
146.0000     183
146.0200     231
146.0400     306
146.0600     385
146.0800     427
146.1000     443
146.1200     397
146.1400     336
146.1600     319
146.1800     312
146.2000     273
146.2200     235
146.2400     269
146.2600     326
146.2800     360
146.3000     375
146.3200     346
146.3400     308
146.3600     307
146.3800     311
146.4000     267
146.4200     215
146.4400     223
146.4600     258
146.4800     309
146.5000     357
146.5200     354
146.5400     329
146.5600     299
146.5800     272
146.6000     273
146.6200     287
146.6400     309
146.6600     330
146.6800     326
146.7000     313
146.7200     305
146.7400     303
146.7600     321
146.7800     336
146.8000     291
146.8200     231
146.8400     213
146.8600     222
146.8800     288
146.9000     358
146.9200     338
146.9400     297
146.9600     331
146.9800     384
147.0000     385
147.0200     360
147.0400     312
147.0600     268
147.0800     292
147.1000     336
147.1200     338
147.1400     326
147.1600     324
147.1800     321
147.2000     292
147.2200     255
147.2400     238
147.2600     235
147.2800     269
147.3000     324
147.3200     414
147.3400     494
147.3600     457
147.3800     376
147.4000     308
147.4200     260
147.4400     282
147.4600     322
147.4800     309
147.5000     287
147.5200     327
147.5400     379
147.5600     371
147.5800     349
147.6000     378
147.6200     419
147.6400     414
147.6600     392
147.6800     385
147.7000     377
147.7200     341
147.7400     311
147.7600     376
147.7800     458
147.8000     443
147.8200     391
147.8400     344
147.8600     309
147.8800     321
147.9000     355
147.9200     411
147.9400     468
147.9600     493
147.9800     505
148.0000     514
148.0200     513
148.0400     468
148.0600     412
148.0800     386
148.1000     369
148.1200     332
148.1400     303
148.1600     349
148.1800     411
148.2000     401
148.2200     374
148.2400     397
148.2600     429
148.2800     401
148.3000     365
148.3200     407
148.3400     461
148.3600     412
148.3800     339
148.4000     349
148.4200     393
148.4400     434
148.4600     464
148.4800     449
148.5000     420
148.5200     414
148.5400     418
148.5600     420
148.5800     415
148.6000     375
148.6200     333
148.6400     348
148.6600     385
148.6800     415
148.7000     435
148.7200     413
148.7400     381
148.7600     378
148.7800     389
148.8000     418
148.8200     441
148.8400     396
148.8600     343
148.8800     390
148.9000     454
148.9200     408
148.9400     330
148.9600     310
148.9800     315
149.0000     325
149.0200     335
149.0400     337
149.0600     337
149.0800     347
149.1000     356
149.1200     340
149.1400     310
149.1600     263
149.1800     223
149.2000     253
149.2200     310
149.2400     362
149.2600     407
149.2800     424
149.3000     430
149.3200     439
149.3400     450
149.3600     461
149.3800     459
149.4000     389
149.4200     311
149.4400     335
149.4600     388
149.4800     389
149.5000     371
149.5200     360
149.5400     355
149.5600     370
149.5800     385
149.6000     367
149.6200     345
149.6400     373
149.6600     408
149.6800     381
149.7000     337
149.7200     330
149.7400     335
149.7600     330
149.7800     325
149.8000     347
149.8200     372
149.8400     365
149.8600     366
149.8800     470
149.9000     590
149.9200     580
149.9400     526
149.9600     509
149.9800     502
150.0000     468
150.0200     433
150.0400     445
150.0600     467
150.0800     452
150.1000     426
150.1200     417
150.1400     417
150.1600     425
150.1800     438
150.2000     458
150.2200     472
150.2400     449
150.2600     419
150.2800     426
150.3000     445
150.3200     452
150.3400     460
150.3600     493
150.3800     518
150.4000     448
150.4200     363
150.4400     391
150.4600     442
150.4800     378
150.5000     292
150.5200     325
150.5400     400
150.5600     453
150.5800     503
150.6000     585
150.6200     660
150.6400     640
150.6600     582
150.6800     524
150.7000     479
150.7200     497
150.7400     534
150.7600     534
150.7800     522
150.8000     519
150.8200     520
150.8400     529
150.8600     537
150.8800     522
150.9000     492
150.9200     437
150.9400     388
150.9600     422
150.9800     483
151.0000     509
151.0200     529
151.0400     591
151.0600     654
151.0800     640
151.1000     594
151.1200     538
151.1400     507
151.1600     619
151.1800     753
151.2000     704
151.2200     603
151.2400     610
151.2600     641
151.2800     577
151.3000     497
151.3200     527
151.3400     586
151.3600     565
151.3800     533
151.4000     599
151.4200     684
151.4400     663
151.4600     613
151.4800     638
151.5000     682
151.5200     679
151.5400     651
151.5600     593
151.5800     548
151.6000     625
151.6200     727
151.6400     709
151.6600     652
151.6800     640
151.7000     644
151.7200     641
151.7400     631
151.7600     600
151.7800     574
151.8000     619
151.8200     679
151.8400     668
151.8600     637
151.8800     654
151.9000     692
151.9200     740
151.9400     787
151.9600     811
151.9800     820
152.0000     802
152.0200     777
152.0400     769
152.0600     763
152.0800     737
152.1000     709
152.1200     713
152.1400     730
152.1600     755
152.1800     787
152.2000     839
152.2200     888
152.2400     884
152.2600     862
152.2800     863
152.3000     871
152.3200     866
152.3400     864
152.3600     900
152.3800     953
152.4000    1008
152.4200    1049
152.4400    1018
152.4600     967
152.4800     958
152.5000     975
152.5200    1038
152.5400    1123
152.5600    1218
152.5800    1301
152.6000    1301
152.6200    1267
152.6400    1233
152.6600    1190
152.6800    1100
152.7000    1018
152.7200    1066
152.7400    1155
152.7600    1187
152.7800    1201
152.8000    1230
152.8200    1269
152.8400    1321
152.8600    1369
152.8800    1366
152.9000    1341
152.9200    1312
152.9400    1299
152.9600    1368
152.9800    1444
153.0000    1390
153.0200    1308
153.0400    1346
153.0600    1412
153.0800    1378
153.1000    1324
153.1200    1372
153.1400    1444
153.1600    1441
153.1800    1424
153.2000    1494
153.2200    1588
153.2400    1635
153.2600    1649
153.2800    1593
153.3000    1532
153.3200    1588
153.3400    1684
153.3600    1753
153.3800    1791
153.4000    1728
153.4200    1633
153.4400    1588
153.4600    1579
153.4800    1653
153.5000    1741
153.5200    1731
153.5400    1722
153.5600    1920
153.5800    2153
153.6000    2151
153.6200    2049
153.6400    1922
153.6600    1829
153.6800    1959
153.7000    2151
153.7200    2205
153.7400    2214
153.7600    2280
153.7800    2336
153.8000    2232
153.8200    2101
153.8400    2156
153.8600    2256
153.8800    2205
153.9000    2121
153.9200    2177
153.9400    2259
153.9600    2191
153.9800    2074
154.0000    2013
154.0200    1994
154.0400    2069
154.0600    2165
154.0800    2181
154.1000    2162
154.1200    2129
154.1400    2118
154.1600    2239
154.1800    2383
154.2000    2380
154.2200    2325
154.2400    2305
154.2600    2300
154.2800    2299
154.3000    2307
154.3200    2356
154.3400    2395
154.3600    2296
154.3800    2172
154.4000    2201
154.4200    2289
154.4400    2362
154.4600    2416
154.4800    2402
154.5000    2361
154.5200    2325
154.5400    2293
154.5600    2273
154.5800    2266
154.6000    2304
154.6200    2338
154.6400    2263
154.6600    2161
154.6800    2134
154.7000    2121
154.7200    2025
154.7400    1919
154.7600    1936
154.7800    2014
154.8000    2149
154.8200    2271
154.8400    2211
154.8600    2104
154.8800    2120
154.9000    2180
154.9200    2207
154.9400    2215
154.9600    2196
154.9800    2165
155.0000    2129
155.0200    2098
155.0400    2099
155.0600    2107
155.0800    2083
155.1000    2058
155.1200    2085
155.1400    2116
155.1600    2067
155.1800    1987
155.2000    1920
155.2200    1860
155.2400    1807
155.2600    1772
155.2800    1812
155.3000    1868
155.3200    1856
155.3400    1826
155.3600    1851
155.3800    1867
155.4000    1736
155.4200    1589
155.4400    1654
155.4600    1772
155.4800    1733
155.5000    1642
155.5200    1606
155.5400    1581
155.5600    1500
155.5800    1422
155.6000    1477
155.6200    1576
155.6400    1630
155.6600    1636
155.6800    1494
155.7000    1340
155.7200    1424
155.7400    1570
155.7600    1548
155.7800    1459
155.8000    1377
155.8200    1340
155.8400    1519
155.8600    1731
155.8800    1668
155.9000    1512
155.9200    1436
155.9400    1394
155.9600    1360
155.9800    1331
156.0000    1304
156.0200    1287
156.0400    1315
156.0600    1348
156.0800    1316
156.1000    1269
156.1200    1277
156.1400    1302
156.1600    1304
156.1800    1285
156.2000    1212
156.2200    1124
156.2400    1065
156.2600    1024
156.2800    1021
156.3000    1040
156.3200    1092
156.3400    1136
156.3600    1067
156.3800     979
156.4000    1021
156.4200    1093
156.4400    1053
156.4600     988
156.4800    1015
156.5000    1059
156.5200    1006
156.5400     933
156.5600     952
156.5800    1000
156.6000    1013
156.6200    1003
156.6400     953
156.6600     895
156.6800     880
156.7000     883
156.7200     890
156.7400     894
156.7600     881
156.7800     865
156.8000     871
156.8200     882
156.8400     876
156.8600     863
156.8800     842
156.9000     816
156.9200     781
156.9400     754
156.9600     782
156.9800     825
157.0000     828
157.0200     820
157.0400     832
157.0600     851
157.0800     867
157.1000     871
157.1200     823
157.1400     756
157.1600     696
157.1800     650
157.2000     664
157.2200     703
157.2400     749
157.2600     777
157.2800     705
157.3000     617
157.3200     652
157.3400     720
157.3600     705
157.3800     652
157.4000     575
157.4200     513
157.4400     571
157.4600     658
157.4800     650
157.5000     613
157.5200     621
157.5400     645
157.5600     656
157.5800     658
157.6000     638
157.6200     622
157.6400     663
157.6600     716
157.6800     719
157.7000     704
157.7200     704
157.7400     711
157.7600     725
157.7800     728
157.8000     667
157.8200     604
157.8400     653
157.8600     728
157.8800     711
157.9000     673
157.9200     715
157.9400     762
157.9600     674
157.9800     559
158.0000     574
158.0200     634
158.0400     651
158.0600     653
158.0800     665
158.1000     673
158.1200     646
158.1400     608
158.1600     593
158.1800     590
158.2000     602
158.2200     603
158.2400     514
158.2600     424
158.2800     504
158.3000     628
158.3200     629
158.3400     585
158.3600     561
158.3800     549
158.4000     557
158.4200     569
158.4400     561
158.4600     551
158.4800     572
158.5000     600
158.5200     593
158.5400     565
158.5600     495
158.5800     416
158.6000     372
158.6200     358
158.6400     421
158.6600     504
158.6800     534
158.7000     536
158.7200     511
158.7400     476
158.7600     448
158.7800     434
158.8000     482
158.8200     541
158.8400     540
158.8600     521
158.8800     539
158.9000     560
158.9200     529
158.9400     486
158.9600     485
158.9800     502
159.0000     524
159.0200     537
159.0400     496
159.0600     441
159.0800     416
159.1000     414
159.1200     460
159.1400     516
159.1600     521
159.1800     500
159.2000     455
159.2200     411
159.2400     417
159.2600     445
159.2800     478
159.3000     507
159.3200     501
159.3400     483
159.3600     477
159.3800     474
159.4000     469
159.4200     463
159.4400     452
159.4600     446
159.4800     467
159.5000     485
159.5200     434
159.5400     369
159.5600     369
159.5800     392
159.6000     397
159.6200     399
159.6400     423
159.6600     443
159.6800     408
159.7000     366
159.7200     404
159.7400     457
159.7600     427
159.7800     382
159.8000     433
159.8200     513
159.8400     542
159.8600     547
159.8800     538
159.9000     522
159.9200     496
159.9400     465
159.9600     428
159.9800     395
160.0000     397
160.0200     415
160.0400     448
160.0600     481
160.0800     489
160.1000     480
160.1200     434
160.1400     380
160.1600     353
160.1800     344
160.2000     370
160.2200     405
160.2400     418
160.2600     422
160.2800     424
160.3000     431
160.3200     458
160.3400     484
160.3600     462
160.3800     426
160.4000     423
160.4200     440
160.4400     492
160.4600     535
160.4800     462
160.5000     358
160.5200     334
160.5400     352
160.5600     421
160.5800     499
160.6000     512
160.6200     488
160.6400     402
160.6600     314
160.6800     336
160.7000     390
160.7200     381
160.7400     352
160.7600     346
160.7800     357
160.8000     405
160.8200     447
160.8400     389
160.8600     313
160.8800     347
160.9000     411
160.9200     407
160.9400     378
160.9600     365
160.9800     353
161.0000     308
161.0200     268
161.0400     321
161.0600     395
161.0800     384
161.1000     352
161.1200     378
161.1400     418
161.1600     407
161.1800     385
161.2000     413
161.2200     447
161.2400     412
161.2600     356
161.2800     327
161.3000     318
161.3200     357
161.3400     414
161.3600     465
161.3800     498
161.4000     457
161.4200     403
161.4400     428
161.4600     466
161.4800     414
161.5000     347
161.5200     388
161.5400     453
161.5600     421
161.5800     359
161.6000     332
161.6200     327
161.6400     354
161.6600     383
161.6800     360
161.7000     325
161.7200     333
161.7400     352
161.7600     335
161.7800     309
161.8000     316
161.8200     335
161.8400     351
161.8600     359
161.8800     339
161.9000     312
161.9200     315
161.9400     329
161.9600     345
161.9800     356