File: XRD_Tool/XRD_Tool/bin/Debug/LDA_sample_name_56789_Psi-24_20180623-123627.txt
138.0000     237
138.0200     267
138.0400     247
138.0600     207
138.0800     169
138.1000     140
138.1200     156
138.1400     188
138.1600     211
138.1800     235
138.2000     278
138.2200     310
138.2400     257
138.2600     181
138.2800     167
138.3000     181
138.3200     218
138.3400     257
138.3600     259
138.3800     250
138.4000     253
138.4200     254
138.4400     222
138.4600     189
138.4800     226
138.5000     279
138.5200     277
138.5400     252
138.5600     225
138.5800     199
138.6000     180
138.6200     176
138.6400     234
138.6600     300
138.6800     286
138.7000     242
138.7200     211
138.7400     190
138.7600     191
138.7800     204
138.8000     233
138.8200     266
138.8400     284
138.8600     290
138.8800     266
138.9000     236
138.9200     233
138.9400     237
138.9600     224
138.9800     211
139.0000     228
139.0200     250
139.0400     229
139.0600     201
139.0800     223
139.1000     253
139.1200     223
139.1400     179
139.1600     190
139.1800     221
139.2000     249
139.2200     267
139.2400     248
139.2600     222
139.2800     238
139.3000     257
139.3200     214
139.3400     162
139.3600     190
139.3800     241
139.4000     247
139.4200     239
139.4400     251
139.4600     270
139.4800     284
139.5000     292
139.5200     279
139.5400     257
139.5600     238
139.5800     223
139.6000     220
139.6200     218
139.6400     201
139.6600     181
139.6800     183
139.7000     189
139.7200     175
139.7400     165
139.7600     216
139.7800     272
139.8000     227
139.8200     162
139.8400     203
139.8600     267
139.8800     231
139.9000     174
139.9200     209
139.9400     273
139.9600     295
139.9800     291
140.0000     237
140.0200     173
140.0400     156
140.0600     159
140.0800     172
140.1000     190
140.1200     216
140.1400     242
140.1600     246
140.1800     249
140.2000     284
140.2200     325
140.2400     329
140.2600     318
140.2800     302
140.3000     284
140.3200     264
140.3400     258
140.3600     319
140.3800     380
140.4000     306
140.4200     197
140.4400     183
140.4600     201
140.4800     187
140.5000     180
140.5200     266
140.5400     364
140.5600     331
140.5800     251
140.6000     204
140.6200     182
140.6400     220
140.6600     282
140.6800     341
140.7000     386
140.7200     369
140.7400     324
140.7600     261
140.7800     196
140.8000     157
140.8200     137
140.8400     156
140.8600     186
140.8800     199
140.9000     205
140.9200     208
140.9400     218
140.9600     269
140.9800     325
141.0000     321
141.0200     288
141.0400     225
141.0600     168
141.0800     194
141.1000     247
141.1200     260
141.1400     258
141.1600     253
141.1800     244
141.2000     220
141.2200     198
141.2400     219
141.2600     254
141.2800     276
141.3000     285
141.3200     257
141.3400     231
141.3600     285
141.3800     353
141.4000     329
141.4200     275
141.4400     246
141.4600     240
141.4800     292
141.5000     344
141.5200     273
141.5400     168
141.5600     141
141.5800     149
141.6000     172
141.6200     196
141.6400     192
141.6600     185
141.6800     226
141.7000     274
141.7200     259
141.7400     223
141.7600     210
141.7800     208
141.8000     216
141.8200     226
141.8400     226
141.8600     224
141.8800     229
141.9000     238
141.9200     255
141.9400     279
141.9600     318
141.9800     354
142.0000     337
142.0200     299
142.0400     264
142.0600     238
142.0800     249
142.1000     271
142.1200     273
142.1400     264
142.1600     240
142.1800     216
142.2000     222
142.2200     239
142.2400     251
142.2600     260
142.2800     264
142.3000     261
142.3200     236
142.3400     216
142.3600     263
142.3800     321
142.4000     304
142.4200     270
142.4400     306
142.4600     368
142.4800     418
142.5000     452
142.5200     423
142.5400     373
142.5600     344
142.5800     325
142.6000     310
142.6200     296
142.6400     287
142.6600     280
142.6800     276
142.7000     273
142.7200     262
142.7400     250
142.7600     251
142.7800     260
142.8000     282
142.8200     311
142.8400     342
142.8600     364
142.8800     334
142.9000     294
142.9200     304
142.9400     330
142.9600     333
142.9800     322
143.0000     289
143.0200     257
143.0400     273
143.0600     302
143.0800     293
143.1000     270
143.1200     254
143.1400     250
143.1600     297
143.1800     344
143.2000     286
143.2200     211
143.2400     261
143.2600     346
143.2800     351
143.3000     327
143.3200     313
143.3400     300
143.3600     274
143.3800     249
143.4000     257
143.4200     278
143.4400     292
143.4600     305
143.4800     323
143.5000     346
143.5200     381
143.5400     406
143.5600     354
143.5800     282
143.6000     257
143.6200     251
143.6400     248
143.6600     246
143.6800     242
143.7000     238
143.7200     234
143.7400     237
143.7600     270
143.7800     311
143.8000     325
143.8200     324
143.8400     298
143.8600     264
143.8800     239
143.9000     235
143.9200     321
143.9400     423
143.9600     426
143.9800     394
144.0000     381
144.0200     375
144.0400     370
144.0600     357
144.0800     296
144.1000     233
144.1200     258
144.1400     314
144.1600     347
144.1800     360
144.2000     321
144.2200     279
144.2400     324
144.2600     379
144.2800     312
144.3000     217
144.3200     227
144.3400     279
144.3600     326
144.3800     359
144.4000     329
144.4200     288
144.4400     320
144.4600     370
144.4800     360
144.5000     322
144.5200     266
144.5400     217
144.5600     245
144.5800     303
144.6000     366
144.6200     408
144.6400     340
144.6600     246
144.6800     244
144.7000     271
144.7200     264
144.7400     257
144.7600     310
144.7800     366
144.8000     309
144.8200     229
144.8400     264
144.8600     331
144.8800     331
144.9000     311
144.9200     319
144.9400     336
144.9600     335
144.9800     326
145.0000     312
145.0200     300
145.0400     310
145.0600     328
145.0800     351
145.1000     360
145.1200     297
145.1400     220
145.1600     213
145.1800     237
145.2000     269
145.2200     304
145.2400     331
145.2600     349
145.2800     339
145.3000     321
145.3200     328
145.3400     340
145.3600     334
145.3800     325
145.4000     341
145.4200     361
145.4400     351
145.4600     331
145.4800     321
145.5000     320
145.5200     347
145.5400     368
145.5600     302
145.5800     211
145.6000     162
145.6200     144
145.6400     196
145.6600     263
145.6800     267
145.7000     251
145.7200     270
145.7400     292
145.7600     264
145.7800     230
145.8000     266
145.8200     311
145.8400     264
145.8600     205
145.8800     266
145.9000     358
145.9200     358
145.9400     329
145.9600     334
145.9800     342
146.0000     303
146.0200     254
146.0400     247
146.0600     250
146.0800     223
146.1000     195
146.1200     230
146.1400     283
146.1600     298
146.1800     296
146.2000     286
146.2200     265
146.2400     209
146.2600     152
146.2800     160
146.3000     191
146.3200     208
146.3400     220
146.3600     231
146.3800     253
146.4000     336
146.4200     428
146.4400     435
146.4600     403
146.4800     338
146.5000     277
146.5200     301
146.5400     345
146.5600     320
146.5800     280
146.6000     300
146.6200     343
146.6400     376
146.6600     391
146.6800     331
146.7000     258
146.7200     268
146.7400     314
146.7600     367
146.7800     414
146.8000     418
146.8200     399
146.8400     356
146.8600     312
146.8800     305
146.9000     311
146.9200     305
146.9400     292
146.9600     264
146.9800     240
147.0000     264
147.0200     306
147.0400     333
147.0600     348
147.0800     328
147.1000     299
147.1200     295
147.1400     295
147.1600     262
147.1800     232
147.2000     282
147.2200     348
147.2400     334
147.2600     294
147.2800     289
147.3000     295
147.3200     291
147.3400     287
147.3600     305
147.3800     332
147.4000     365
147.4200     404
147.4400     458
147.4600     500
147.4800     447
147.5000     370
147.5200     360
147.5400     378
147.5600     406
147.5800     428
147.6000     400
147.6200     358
147.6400     348
147.6600     346
147.6800     327
147.7000     316
147.7200     382
147.7400     456
147.7600     420
147.7800     351
147.8000     335
147.8200     337
147.8400     317
147.8600     290
147.8800     265
147.9000     256
147.9200     324
147.9400     403
147.9600     387
147.9800     337
148.0000     312
148.0200     304
148.0400     334
148.0600     372
148.0800     367
148.1000     354
148.1200     386
148.1400     424
148.1600     403
148.1800     361
148.2000     329
148.2200     308
148.2400     317
148.2600     342
148.2800     380
148.3000     416
148.3200     411
148.3400     390
148.3600     374
148.3800     364
148.4000     375
148.4200     391
148.4400     386
148.4600     378
148.4800     403
148.5000     432
148.5200     418
148.5400     388
148.5600     368
148.5800     358
148.6000     376
148.6200     403
148.6400     413
148.6600     415
148.6800     407
148.7000     401
148.7200     424
148.7400     456
148.7600     478
148.7800     481
148.8000     414
148.8200     332
148.8400     318
148.8600     327
148.8800     313
148.9000     291
148.9200     279
148.9400     281
148.9600     333
148.9800     395
149.0000     405
149.0200     399
149.0400     415
149.0600     432
149.0800     417
149.1000     387
149.1200     344
149.1400     308
149.1600     330
149.1800     372
149.2000     396
149.2200     414
149.2400     444
149.2600     468
149.2800     442
149.3000     400
149.3200     378
149.3400     367
149.3600     372
149.3800     391
149.4000     445
149.4200     505
149.4400     522
149.4600     513
149.4800     461
149.5000     400
149.5200     387
149.5400     393
149.5600     399
149.5800     409
149.6000     437
149.6200     459
149.6400     411
149.6600     350
149.6800     363
149.7000     400
149.7200     412
149.7400     416
149.7600     431
149.7800     442
149.8000     407
149.8200     364
149.8400     376
149.8600     406
149.8800     416
149.9000     418
149.9200     425
149.9400     430
149.9600     422
149.9800     418
150.0000     469
150.0200     538
150.0400     595
150.0600     629
150.0800     568
150.1000     491
150.1200     521
150.1400     571
150.1600     509
150.1800     419
150.2000     406
150.2200     432
150.2400     503
150.2600     570
150.2800     535
150.3000     467
150.3200     439
150.3400     429
150.3600     428
150.3800     429
150.4000     425
150.4200     425
150.4400     458
150.4600     497
150.4800     499
150.5000     490
150.5200     495
150.5400     506
150.5600     525
150.5800     539
150.6000     515
150.6200     475
150.6400     435
150.6600     411
150.6800     465
150.7000     533
150.7200     509
150.7400     456
150.7600     437
150.7800     444
150.8000     517
150.8200     599
150.8400     586
150.8600     545
150.8800     546
150.9000     554
150.9200     515
150.9400     466
150.9600     459
150.9800     465
151.0000     456
151.0200     442
151.0400     436
151.0600     444
151.0800     502
151.1000     566
151.1200     562
151.1400     546
151.1600     610
151.1800     687
151.2000     667
151.2200     623
151.2400     647
151.2600     678
151.2800     603
151.3000     508
151.3200     533
151.3400     594
151.3600     600
151.3800     591
151.4000     620
151.4200     657
151.4400     656
151.4600     637
151.4800     601
151.5000     577
151.5200     643
151.5400     720
151.5600     672
151.5800     596
151.6000     630
151.6200     701
151.6400     735
151.6600     749
151.6800     728
151.7000     695
151.7200     664
151.7400     643
151.7600     668
151.7800     714
151.8000     765
151.8200     815
151.8400     847
151.8600     869
151.8800     883
151.9000     890
151.9200     885
151.9400     874
151.9600     855
151.9800     838
152.0000     849
152.0200     860
152.0400     814
152.0600     782
152.0800     927
152.1000    1097
152.1200    1040
152.1400     899
152.1600     788
152.1800     716
152.2000     771
152.2200     865
152.2400     899
152.2600     915
152.2800     961
152.3000    1009
152.3200    1012
152.3400     995
152.3600     973
152.3800     948
152.4000     921
152.4200     903
152.4400     932
152.4600     977
152.4800    1010
152.5000    1049
152.5200    1142
152.5400    1235
152.5600    1228
152.5800    1193
152.6000    1223
152.6200    1265
152.6400    1239
152.6600    1193
152.6800    1188
152.7000    1203
152.7200    1228
152.7400    1266
152.7600    1344
152.7800    1425
152.8000    1439
152.8200    1446
152.8400    1548
152.8600    1650
152.8800    1559
152.9000    1414
152.9200    1387
152.9400    1416
152.9600    1485
152.9800    1557
153.0000    1561
153.0200    1538
153.0400    1523
153.0600    1505
153.0800    1457
153.1000    1425
153.1200    1530
153.1400    1663
153.1600    1663
153.1800    1632
153.2000    1717
153.2200    1840
153.2400    1913
153.2600    1954
153.2800    1928
153.3000    1874
153.3200    1809
153.3400    1753
153.3600    1767
153.3800    1818
153.4000    1919
153.4200    2007
153.4400    1938
153.4600    1841
153.4800    1916
153.5000    2037
153.5200    2046
153.5400    2028
153.5600    2097
153.5800    2173
153.6000    2111
153.6200    2025
153.6400    2104
153.6600    2229
153.6800    2259
153.7000    2258
153.7200    2295
153.7400    2328
153.7600    2265
153.7800    2186
153.8000    2223
153.8200    2304
153.8400    2365
153.8600    2417
153.8800    2456
153.9000    2473
153.9200    2408
153.9400    2314
153.9600    2240
153.9800    2194
154.0000    2250
154.0200    2323
154.0400    2284
154.0600    2221
154.0800    2260
154.1000    2328
154.1200    2338
154.1400    2346
154.1600    2464
154.1800    2597
154.2000    2585
154.2200    2517
154.2400    2464
154.2600    2428
154.2800    2450
154.3000    2494
154.3200    2528
154.3400    2542
154.3600    2478
154.3800    2401
154.4000    2422
154.4200    2475
154.4400    2490
154.4600    2494
154.4800    2520
154.5000    2547
154.5200    2544
154.5400    2522
154.5600    2473
154.5800    2424
154.6000    2430
154.6200    2443
154.6400    2380
154.6600    2308
154.6800    2346
154.7000    2408
154.7200    2375
154.7400    2293
154.7600    2161
154.7800    2042
154.8000    2088
154.8200    2177
154.8400    2154
154.8600    2108
154.8800    2169
154.9000    2277
154.9200    2405
154.9400    2508
154.9600    2446
154.9800    2331
155.0000    2284
155.0200    2256
155.0400    2187
155.0600    2111
155.0800    2086
155.1000    2079
155.1200    2057
155.1400    2029
155.1600    1998
155.1800    1969
155.2000    1957
155.2200    1947
155.2400    1922
155.2600    1897
155.2800    1905
155.3000    1929
155.3200    1961
155.3400    1989
155.3600    1977
155.3800    1939
155.4000    1850
155.4200    1749
155.4400    1698
155.4600    1686
155.4800    1777
155.5000    1888
155.5200    1893
155.5400    1853
155.5600    1808
155.5800    1766
155.6000    1757
155.6200    1752
155.6400    1701
155.6600    1639
155.6800    1617
155.7000    1603
155.7200    1552
155.7400    1500
155.7600    1515
155.7800    1545
155.8000    1518
155.8200    1469
155.8400    1427
155.8600    1380
155.8800    1298
155.9000    1220
155.9200    1235
155.9400    1300
155.9600    1425
155.9800    1537
156.0000    1459
156.0200    1329
156.0400    1316
156.0600    1357
156.0800    1438
156.1000    1514
156.1200    1490
156.1400    1425
156.1600    1355
156.1800    1290
156.2000    1258
156.2200    1245
156.2400    1255
156.2600    1265
156.2800    1224
156.3000    1159
156.3200    1080
156.3400    1012
156.3600    1021
156.3800    1066
156.4000    1134
156.4200    1210
156.4400    1274
156.4600    1316
156.4800    1267
156.5000    1178
156.5200    1075
156.5400     991
156.5600    1026
156.5800    1090
156.6000    1064
156.6200    1007
156.6400     980
156.6600     966
156.6800     965
156.7000     965
156.7200     944
156.7400     909
156.7600     849
156.7800     797
156.8000     840
156.8200     915
156.8400     967
156.8600     996
156.8800     965
156.9000     907
156.9200     839
156.9400     785
156.9600     823
156.9800     890
157.0000     927
157.0200     940
157.0400     896
157.0600     828
157.0800     752
157.1000     684
157.1200     674
157.1400     688
157.1600     699
157.1800     725
157.2000     832
157.2200     939
157.2400     878
157.2600     757
157.2800     669
157.3000     618
157.3200     680
157.3400     768
157.3600     753
157.3800     701
157.4000     669
157.4200     645
157.4400     624
157.4600     604
157.4800     581
157.5000     566
157.5200     594
157.5400     638
157.5600     674
157.5800     694
157.6000     656
157.6200     596
157.6400     549
157.6600     524
157.6800     581
157.7000     659
157.7200     680
157.7400     689
157.7600     751
157.7800     805
157.8000     709
157.8200     578
157.8400     567
157.8600     597
157.8800     585
157.9000     568
157.9200     603
157.9400     642
157.9600     599
157.9800     540
158.0000     566
158.0200     614
158.0400     601
158.0600     564
158.0800     532
158.1000     512
158.1200     543
158.1400     578
158.1600     528
158.1800     464
158.2000     500
158.2200     568
158.2400     596
158.2600     594
158.2800     517
158.3000     431
158.3200     445
158.3400     499
158.3600     551
158.3800     590
158.4000     559
158.4200     509
158.4400     499
158.4600     503
158.4800     495
158.5000     491
158.5200     524
158.5400     555
158.5600     499
158.5800     431
158.6000     471
158.6200     541
158.6400     540
158.6600     514
158.6800     511
158.7000     512
158.7200     490
158.7400     467
158.7600     489
158.7800     512
158.8000     452
158.8200     387
158.8400     467
158.8600     577
158.8800     548
158.9000     479
158.9200     484
158.9400     508
158.9600     482
158.9800     440
159.0000     418
159.0200     404
159.0400     391
159.0600     389
159.0800     432
159.1000     479
159.1200     448
159.1400     398
159.1600     408
159.1800     432
159.2000     411
159.2200     382
159.2400     408
159.2600     450
159.2800     464
159.3000     457
159.3200     406
159.3400     348
159.3600     337
159.3800     354
159.4000     419
159.4200     489
159.4400     488
159.4600     462
159.4800     461
159.5000     468
159.5200     473
159.5400     471
159.5600     436
159.5800     396
159.6000     399
159.6200     421
159.6400     450
159.6600     470
159.6800     432
159.7000     381
159.7200     390
159.7400     416
159.7600     415
159.7800     410
159.8000     440
159.8200     473
159.8400     448
159.8600     399
159.8800     347
159.9000     308
159.9200     345
159.9400     401
159.9600     392
159.9800     363
160.0000     361
160.0200     372
160.0400     398
160.0600     417
160.0800     374
160.1000     318
160.1200     321
160.1400     342
160.1600     338
160.1800     326
160.2000     324
160.2200     322
160.2400     300
160.2600     278
160.2800     301
160.3000     334
160.3200     334
160.3400     326
160.3600     348
160.3800     374
160.4000     361
160.4200     339
160.4400     342
160.4600     357
160.4800     375
160.5000     392
160.5200     389
160.5400     379
160.5600     367
160.5800     356
160.6000     349
160.6200     336
160.6400     289
160.6600     242
160.6800     257
160.7000     290
160.7200     290
160.7400     283
160.7600     311
160.7800     346
160.8000     347
160.8200     340
160.8400     353
160.8600     369
160.8800     352
160.9000     324
160.9200     311
160.9400     304
160.9600     305
160.9800     311
161.0000     324
161.0200     333
161.0400     307
161.0600     273
161.0800     271
161.1000     286
161.1200     331
161.1400     371
161.1600     329
161.1800     264
161.2000     244
161.2200     244
161.2400     251
161.2600     265
161.2800     299
161.3000     329
161.3200     300
161.3400     255
161.3600     240
161.3800     241
161.4000     259
161.4200     283
161.4400     307
161.4600     328
161.4800     332
161.5000     333
161.5200     351
161.5400     366
161.5600     336
161.5800     300
161.6000     327
161.6200     367
161.6400     347
161.6600     309
161.6800     301
161.7000     310
161.7200     343
161.7400     385
161.7600     430
161.7800     456
161.8000     382
161.8200     288
161.8400     292
161.8600     320
161.8800     268
161.9000     203
161.9200     230
161.9400     287
161.9600     307
161.9800     310