File: XRD_Tool/XRD_Tool/bin/Debug/LDA_sample_name_56789_Psi-24_20180623-123825.txt
138.0000     141
138.0200     141
138.0400     170
138.0600     200
138.0800     185
138.1000     157
138.1200     157
138.1400     166
138.1600     158
138.1800     148
138.2000     157
138.2200     169
138.2400     166
138.2600     158
138.2800     162
138.3000     165
138.3200     148
138.3400     135
138.3600     185
138.3800     244
138.4000     220
138.4200     174
138.4400     186
138.4600     210
138.4800     171
138.5000     113
138.5200      88
138.5400      82
138.5600     104
138.5800     137
138.6000     165
138.6200     188
138.6400     193
138.6600     195
138.6800     219
138.7000     246
138.7200     253
138.7400     243
138.7600     196
138.7800     149
138.8000     174
138.8200     215
138.8400     189
138.8600     149
138.8800     169
138.9000     200
138.9200     168
138.9400     125
138.9600     159
138.9800     213
139.0000     217
139.0200     198
139.0400     165
139.0600     135
139.0800     140
139.1000     166
139.1200     224
139.1400     276
139.1600     240
139.1800     183
139.2000     204
139.2200     243
139.2400     214
139.2600     169
139.2800     179
139.3000     209
139.3200     230
139.3400     241
139.3600     216
139.3800     184
139.4000     195
139.4200     226
139.4400     270
139.4600     301
139.4800     236
139.5000     151
139.5200     164
139.5400     201
139.5600     160
139.5800     105
139.6000     138
139.6200     187
139.6400     139
139.6600      75
139.6800     116
139.7000     187
139.7200     193
139.7400     181
139.7600     206
139.7800     233
139.8000     195
139.8200     150
139.8400     200
139.8600     273
139.8800     272
139.9000     239
139.9200     188
139.9400     144
139.9600     168
139.9800     212
140.0000     218
140.0200     212
140.0400     224
140.0600     239
140.0800     226
140.1000     204
140.1200     195
140.1400     193
140.1600     201
140.1800     205
140.2000     169
140.2200     136
140.2400     195
140.2600     272
140.2800     255
140.3000     217
140.3200     258
140.3400     309
140.3600     256
140.3800     180
140.4000     194
140.4200     234
140.4400     221
140.4600     198
140.4800     232
140.5000     276
140.5200     261
140.5400     232
140.5600     248
140.5800     271
140.6000     238
140.6200     187
140.6400     161
140.6600     157
140.6800     213
140.7000     278
140.7200     271
140.7400     230
140.7600     166
140.7800     103
140.8000      97
140.8200     113
140.8400     129
140.8600     147
140.8800     180
140.9000     212
140.9200     214
140.9400     204
140.9600     192
140.9800     178
141.0000     152
141.0200     130
141.0400     147
141.0600     179
141.0800     216
141.1000     246
141.1200     238
141.1400     217
141.1600     211
141.1800     214
141.2000     232
141.2200     250
141.2400     239
141.2600     212
141.2800     155
141.3000     106
141.3200     149
141.3400     213
141.3600     200
141.3800     167
141.4000     191
141.4200     235
141.4400     271
141.4600     290
141.4800     245
141.5000     181
141.5200     146
141.5400     133
141.5600     180
141.5800     240
141.6000     250
141.6200     243
141.6400     254
141.6600     269
141.6800     268
141.7000     257
141.7200     234
141.7400     210
141.7600     204
141.7800     204
141.8000     189
141.8200     169
141.8400     151
141.8600     137
141.8800     141
141.9000     161
141.9200     223
141.9400     285
141.9600     267
141.9800     220
142.0000     191
142.0200     181
142.0400     226
142.0600     280
142.0800     264
142.1000     235
142.1200     279
142.1400     336
142.1600     305
142.1800     253
142.2000     269
142.2200     300
142.2400     268
142.2600     216
142.2800     196
142.3000     190
142.3200     197
142.3400     217
142.3600     275
142.3800     334
142.4000     313
142.4200     275
142.4400     307
142.4600     359
142.4800     371
142.5000     361
142.5200     318
142.5400     271
142.5600     269
142.5800     293
142.6000     360
142.6200     425
142.6400     395
142.6600     334
142.6800     305
142.7000     286
142.7200     253
142.7400     221
142.7600     219
142.7800     231
142.8000     248
142.8200     269
142.8400     292
142.8600     307
142.8800     278
142.9000     237
142.9200     218
142.9400     211
142.9600     217
142.9800     228
143.0000     231
143.0200     226
143.0400     201
143.0600     183
143.0800     248
143.1000     315
143.1200     226
143.1400      97
143.1600      88
143.1800     130
143.2000     192
143.2200     253
143.2400     267
143.2600     259
143.2800     233
143.3000     199
143.3200     163
143.3400     139
143.3600     173
143.3800     224
143.4000     235
143.4200     232
143.4400     231
143.4600     234
143.4800     255
143.5000     278
143.5200     274
143.5400     264
143.5600     273
143.5800     290
143.6000     313
143.6200     338
143.6400     353
143.6600     360
143.6800     339
143.7000     312
143.7200     313
143.7400     328
143.7600     356
143.7800     372
143.8000     298
143.8200     206
143.8400     203
143.8600     222
143.8800     179
143.9000     130
143.9200     174
143.9400     249
143.9600     286
143.9800     301
144.0000     281
144.0200     253
144.0400     255
144.0600     261
144.0800     229
144.1000     197
144.1200     248
144.1400     320
144.1600     329
144.1800     315
144.2000     314
144.2200     311
144.2400     270
144.2600     220
144.2800     201
144.3000     203
144.3200     244
144.3400     288
144.3600     273
144.3800     244
144.4000     257
144.4200     285
144.4400     305
144.4600     319
144.4800     328
144.5000     330
144.5200     310
144.5400     278
144.5600     223
144.5800     172
144.6000     191
144.6200     234
144.6400     262
144.6600     275
144.6800     246
144.7000     207
144.7200     200
144.7400     212
144.7600     252
144.7800     296
144.8000     297
144.8200     279
144.8400     252
144.8600     231
144.8800     250
144.9000     280
144.9200     277
144.9400     266
144.9600     285
144.9800     304
145.0000     266
145.0200     224
145.0400     272
145.0600     343
145.0800     351
145.1000     336
145.1200     336
145.1400     339
145.1600     329
145.1800     309
145.2000     274
145.2200     238
145.2400     234
145.2600     240
145.2800     237
145.3000     234
145.3200     245
145.3400     253
145.3600     222
145.3800     190
145.4000     227
145.4200     285
145.4400     314
145.4600     324
145.4800     291
145.5000     247
145.5200     236
145.5400     240
145.5600     253
145.5800     264
145.6000     253
145.6200     247
145.6400     309
145.6600     382
145.6800     369
145.7000     325
145.7200     301
145.7400     291
145.7600     316
145.7800     343
145.8000     318
145.8200     281
145.8400     286
145.8600     303
145.8800     293
145.9000     278
145.9200     286
145.9400     310
145.9600     359
145.9800     405
146.0000     383
146.0200     333
146.0400     285
146.0600     244
146.0800     243
146.1000     250
146.1200     224
146.1400     198
146.1600     247
146.1800     317
146.2000     345
146.2200     353
146.2400     339
146.2600     322
146.2800     329
146.3000     339
146.3200     322
146.3400     294
146.3600     268
146.3800     248
146.4000     258
146.4200     278
146.4400     288
146.4600     289
146.4800     267
146.5000     247
146.5200     292
146.5400     351
146.5600     358
146.5800     349
146.6000     360
146.6200     371
146.6400     337
146.6600     296
146.6800     310
146.7000     338
146.7200     328
146.7400     304
146.7600     293
146.7800     288
146.8000     285
146.8200     285
146.8400     295
146.8600     304
146.8800     291
146.9000     269
146.9200     244
146.9400     227
146.9600     257
146.9800     299
147.0000     314
147.0200     324
147.0400     361
147.0600     395
147.0800     364
147.1000     301
147.1200     213
147.1400     136
147.1600     164
147.1800     230
147.2000     276
147.2200     312
147.2400     341
147.2600     364
147.2800     369
147.3000     362
147.3200     328
147.3400     297
147.3600     328
147.3800     364
147.4000     305
147.4200     228
147.4400     258
147.4600     319
147.4800     328
147.5000     319
147.5200     325
147.5400     335
147.5600     337
147.5800     337
147.6000     345
147.6200     353
147.6400     338
147.6600     321
147.6800     344
147.7000     373
147.7200     355
147.7400     323
147.7600     311
147.7800     317
147.8000     370
147.8200     427
147.8400     412
147.8600     377
147.8800     385
147.9000     399
147.9200     350
147.9400     291
147.9600     307
147.9800     344
148.0000     338
148.0200     315
148.0400     302
148.0600     298
148.0800     324
148.1000     358
148.1200     375
148.1400     384
148.1600     383
148.1800     375
148.2000     345
148.2200     317
148.2400     334
148.2600     362
148.2800     347
148.3000     333
148.3200     410
148.3400     496
148.3600     437
148.3800     339
148.4000     328
148.4200     350
148.4400     365
148.4600     382
148.4800     424
148.5000     460
148.5200     414
148.5400     349
148.5600     348
148.5800     374
148.6000     415
148.6200     451
148.6400     435
148.6600     406
148.6800     414
148.7000     435
148.7200     451
148.7400     453
148.7600     397
148.7800     332
148.8000     345
148.8200     381
148.8400     375
148.8600     347
148.8800     288
148.9000     234
148.9200     270
148.9400     338
148.9600     389
148.9800     418
149.0000     372
149.0200     315
149.0400     353
149.0600     412
149.0800     386
149.1000     337
149.1200     343
149.1400     373
149.1600     410
149.1800     438
149.2000     409
149.2200     370
149.2400     394
149.2600     430
149.2800     396
149.3000     339
149.3200     306
149.3400     290
149.3600     314
149.3800     355
149.4000     404
149.4200     442
149.4400     410
149.4600     357
149.4800     337
149.5000     345
149.5200     423
149.5400     500
149.5600     429
149.5800     316
149.6000     291
149.6200     304
149.6400     327
149.6600     344
149.6800     304
149.7000     261
149.7200     308
149.7400     382
149.7600     406
149.7800     415
149.8000     449
149.8200     489
149.8400     507
149.8600     514
149.8800     501
149.9000     486
149.9200     496
149.9400     508
149.9600     477
149.9800     439
150.0000     451
150.0200     477
150.0400     478
150.0600     464
150.0800     428
150.1000     392
150.1200     394
150.1400     412
150.1600     429
150.1800     452
150.2000     510
150.2200     562
150.2400     519
150.2600     448
150.2800     434
150.3000     439
150.3200     434
150.3400     424
150.3600     417
150.3800     416
150.4000     437
150.4200     464
150.4400     478
150.4600     476
150.4800     429
150.5000     373
150.5200     369
150.5400     384
150.5600     399
150.5800     416
150.6000     446
150.6200     471
150.6400     443
150.6600     398
150.6800     381
150.7000     376
150.7200     376
150.7400     376
150.7600     361
150.7800     355
150.8000     419
150.8200     503
150.8400     547
150.8600     566
150.8800     540
150.9000     501
150.9200     489
150.9400     492
150.9600     523
150.9800     557
151.0000     548
151.0200     524
151.0400     513
151.0600     509
151.0800     515
151.1000     530
151.1200     567
151.1400     605
151.1600     606
151.1800     590
151.2000     561
151.2200     538
151.2400     572
151.2600     619
151.2800     626
151.3000     622
151.3200     646
151.3400     668
151.3600     618
151.3800     554
151.4000     560
151.4200     589
151.4400     590
151.4600     574
151.4800     526
151.5000     487
151.5200     550
151.5400     640
151.5600     663
151.5800     660
151.6000     660
151.6200     660
151.6400     649
151.6600     635
151.6800     634
151.7000     635
151.7200     619
151.7400     602
151.7600     609
151.7800     618
151.8000     597
151.8200     577
151.8400     629
151.8600     707
151.8800     776
151.9000     833
151.9200     844
151.9400     833
151.9600     810
151.9800     783
152.0000     763
152.0200     750
152.0400     765
152.0600     782
152.0800     751
152.1000     715
152.1200     747
152.1400     799
152.1600     811
152.1800     814
152.2000     850
152.2200     883
152.2400     828
152.2600     764
152.2800     828
152.3000     930
152.3200     962
152.3400     960
152.3600     930
152.3800     903
152.4000     951
152.4200    1009
152.4400     965
152.4600     894
152.4800     890
152.5000     909
152.5200     911
152.5400     913
152.5600     942
152.5800     976
152.6000     980
152.6200     986
152.6400    1062
152.6600    1149
152.6800    1156
152.7000    1136
152.7200    1146
152.7400    1162
152.7600    1146
152.7800    1133
152.8000    1197
152.8200    1278
152.8400    1296
152.8600    1285
152.8800    1260
152.9000    1233
152.9200    1221
152.9400    1227
152.9600    1290
152.9800    1366
153.0000    1392
153.0200    1390
153.0400    1351
153.0600    1303
153.0800    1285
153.1000    1303
153.1200    1441
153.1400    1606
153.1600    1666
153.1800    1685
153.2000    1709
153.2200    1735
153.2400    1760
153.2600    1767
153.2800    1690
153.3000    1606
153.3200    1647
153.3400    1737
153.3600    1817
153.3800    1875
153.4000    1840
153.4200    1783
153.4400    1801
153.4600    1846
153.4800    1877
153.5000    1890
153.5200    1833
153.5400    1777
153.5600    1863
153.5800    1984
153.6000    2003
153.6200    1981
153.6400    1954
153.6600    1940
153.6800    1998
153.7000    2077
153.7200    2121
153.7400    2150
153.7600    2176
153.7800    2188
153.8000    2143
153.8200    2085
153.8400    2074
153.8600    2083
153.8800    2100
153.9000    2130
153.9200    2210
153.9400    2286
153.9600    2240
153.9800    2156
154.0000    2119
154.0200    2113
154.0400    2167
154.0600    2232
154.0800    2232
154.1000    2202
154.1200    2154
154.1400    2118
154.1600    2187
154.1800    2280
154.2000    2291
154.2200    2285
154.2400    2358
154.2600    2440
154.2800    2415
154.3000    2348
154.3200    2286
154.3400    2239
154.3600    2259
154.3800    2294
154.4000    2277
154.4200    2235
154.4400    2172
154.4600    2137
154.4800    2290
154.5000    2478
154.5200    2468
154.5400    2385
154.5600    2335
154.5800    2295
154.6000    2232
154.6200    2163
154.6400    2109
154.6600    2081
154.6800    2153
154.7000    2240
154.7200    2205
154.7400    2118
154.7600    2013
154.7800    1934
154.8000    2021
154.8200    2156
154.8400    2193
154.8600    2187
154.8800    2159
154.9000    2132
154.9200    2148
154.9400    2177
154.9600    2176
154.9800    2176
155.0000    2233
155.0200    2293
155.0400    2256
155.0600    2166
155.0800    2004
155.1000    1851
155.1200    1883
155.1400    1977
155.1600    2006
155.1800    2002
155.2000    1956
155.2200    1893
155.2400    1825
155.2600    1767
155.2800    1768
155.3000    1778
155.3200    1721
155.3400    1655
155.3600    1681
155.3800    1731
155.4000    1723
155.4200    1691
155.4400    1660
155.4600    1650
155.4800    1735
155.5000    1837
155.5200    1831
155.5400    1763
155.5600    1607
155.5800    1451
155.6000    1478
155.6200    1571
155.6400    1629
155.6600    1655
155.6800    1588
155.7000    1488
155.7200    1411
155.7400    1362
155.7600    1405
155.7800    1465
155.8000    1428
155.8200    1377
155.8400    1449
155.8600    1537
155.8800    1455
155.9000    1317
155.9200    1236
155.9400    1189
155.9600    1197
155.9800    1221
156.0000    1215
156.0200    1203
156.0400    1224
156.0600    1259
156.0800    1298
156.1000    1318
156.1200    1239
156.1400    1135
156.1600    1098
156.1800    1107
156.2000    1213
156.2200    1324
156.2400    1275
156.2600    1165
156.2800    1075
156.3000    1009
156.3200    1026
156.3400    1057
156.3600     992
156.3800     914
156.4000     966
156.4200    1054
156.4400    1063
156.4600    1042
156.4800    1025
156.5000    1006
156.5200     975
156.5400     941
156.5600     917
156.5800     898
156.6000     881
156.6200     878
156.6400     941
156.6600    1017
156.6800    1022
156.7000     993
156.7200     940
156.7400     891
156.7600     902
156.7800     927
156.8000     899
156.8200     846
156.8400     780
156.8600     732
156.8800     807
156.9000     911
156.9200     915
156.9400     875
156.9600     817
156.9800     764
157.0000     776
157.0200     812
157.0400     841
157.0600     863
157.0800     864
157.1000     847
157.1200     786
157.1400     720
157.1600     709
157.1800     721
157.2000     730
157.2200     734
157.2400     723
157.2600     708
157.2800     710
157.3000     718
157.3200     726
157.3400     728
157.3600     701
157.3800     675
157.4000     709
157.4200     749
157.4400     694
157.4600     609
157.4800     559
157.5000     531
157.5200     543
157.5400     571
157.5600     596
157.5800     612
157.6000     591
157.6200     561
157.6400     561
157.6600     584
157.6800     660
157.7000     744
157.7200     757
157.7400     736
157.7600     690
157.7800     638
157.8000     606
157.8200     595
157.8400     652
157.8600     721
157.8800     717
157.9000     679
157.9200     621
157.9400     577
157.9600     643
157.9800     731
158.0000     711
158.0200     651
158.0400     614
158.0600     590
158.0800     588
158.1000     590
158.1200     575
158.1400     553
158.1600     526
158.1800     508
158.2000     540
158.2200     584
158.2400     585
158.2600     570
158.2800     563
158.3000     560
158.3200     562
158.3400     557
158.3600     504
158.3800     448
158.4000     473
158.4200     521
158.4400     514
158.4600     496
158.4800     530
158.5000     569
158.5200     535
158.5400     483
158.5600     492
158.5800     520
158.6000     518
158.6200     508
158.6400     515
158.6600     529
158.6800     543
158.7000     561
158.7200     597
158.7400     634
158.7600     638
158.7800     625
158.8000     597
158.8200     558
158.8400     497
158.8600     448
158.8800     501
158.9000     578
158.9200     568
158.9400     533
158.9600     540
158.9800     565
159.0000     596
159.0200     613
159.0400     545
159.0600     461
159.0800     466
159.1000     495
159.1200     470
159.1400     434
159.1600     443
159.1800     477
159.2000     539
159.2200     599
159.2400     584
159.2600     545
159.2800     528
159.3000     516
159.3200     485
159.3400     448
159.3600     413
159.3800     386
159.4000     394
159.4200     421
159.4400     476
159.4600     526
159.4800     491
159.5000     436
159.5200     446
159.5400     475
159.5600     471
159.5800     456
159.6000     458
159.6200     466
159.6400     477
159.6600     491
159.6800     517
159.7000     545
159.7200     563
159.7400     564
159.7600     498
159.7800     417
159.8000     388
159.8200     387
159.8400     424
159.8600     463
159.8800     439
159.9000     395
159.9200     384
159.9400     391
159.9600     418
159.9800     437
160.0000     373
160.0200     294
160.0400     313
160.0600     366
160.0800     394
160.1000     406
160.1200     385
160.1400     366
160.1600     422
160.1800     487
160.2000     447
160.2200     374
160.2400     344
160.2600     331
160.2800     313
160.3000     302
160.3200     334
160.3400     384
160.3600     434
160.3800     468
160.4000     417
160.4200     351
160.4400     377
160.4600     420
160.4800     371
160.5000     305
160.5200     338
160.5400     397
160.5600     391
160.5800     365
160.6000     374
160.6200     396
160.6400     418
160.6600     444
160.6800     488
160.7000     522
160.7200     464
160.7400     391
160.7600     420
160.7800     477
160.8000     471
160.8200     438
160.8400     403
160.8600     371
160.8800     357
160.9000     348
160.9200     321
160.9400     297
160.9600     323
160.9800     365
161.0000     387
161.0200     397
161.0400     385
161.0600     376
161.0800     422
161.1000     472
161.1200     430
161.1400     364
161.1600     357
161.1800     364
161.2000     331
161.2200     290
161.2400     296
161.2600     310
161.2800     275
161.3000     236
161.3200     267
161.3400     321
161.3600     345
161.3800     357
161.4000     367
161.4200     371
161.4400     340
161.4600     310
161.4800     352
161.5000     401
161.5200     345
161.5400     269
161.5600     305
161.5800     381
161.6000     438
161.6200     477
161.6400     458
161.6600     416
161.6800     377
161.7000     345
161.7200     343
161.7400     359
161.7600     402
161.7800     450
161.8000     470
161.8200     470
161.8400     430
161.8600     384
161.8800     391
161.9000     407
161.9200     363
161.9400     314
161.9600     360
161.9800     426