File: XRD_Tool/XRD_Tool/bin/Debug/LDA_sample_name_56789_Psi-0_20180603-122744.txt
128.0000     274
128.0400     262
128.0800     250
128.1200     267
128.1600     252
128.2000     233
128.2400     215
128.2800     223
128.3200     270
128.3600     252
128.4000     279
128.4400     259
128.4800     253
128.5200     271
128.5600     259
128.6000     238
128.6400     265
128.6800     285
128.7200     243
128.7600     265
128.8000     249
128.8400     256
128.8800     270
128.9200     248
128.9600     234
129.0000     264
129.0400     234
129.0800     243
129.1200     236
129.1600     248
129.2000     250
129.2400     249
129.2800     228
129.3200     275
129.3600     256
129.4000     271
129.4400     276
129.4800     263
129.5200     251
129.5600     275
129.6000     271
129.6400     278
129.6800     259
129.7200     254
129.7600     265
129.8000     283
129.8400     245
129.8800     257
129.9200     239
129.9600     227
130.0000     267
130.0400     264
130.0800     228
130.1200     260
130.1600     282
130.2000     265
130.2400     283
130.2800     240
130.3200     254
130.3600     238
130.4000     267
130.4400     236
130.4800     257
130.5200     257
130.5600     239
130.6000     251
130.6400     257
130.6800     272
130.7200     245
130.7600     265
130.8000     256
130.8400     283
130.8800     257
130.9200     269
130.9600     246
131.0000     288
131.0400     258
131.0800     275
131.1200     274
131.1600     259
131.2000     271
131.2400     287
131.2800     247
131.3200     289
131.3600     240
131.4000     266
131.4400     305
131.4800     249
131.5200     249
131.5600     284
131.6000     262
131.6400     255
131.6800     269
131.7200     245
131.7600     276
131.8000     263
131.8400     276
131.8800     252
131.9200     257
131.9600     259
132.0000     251
132.0400     254
132.0800     248
132.1200     248
132.1600     266
132.2000     254
132.2400     266
132.2800     246
132.3200     282
132.3600     249
132.4000     294
132.4400     256
132.4800     276
132.5200     272
132.5600     266
132.6000     263
132.6400     277
132.6800     306
132.7200     270
132.7600     274
132.8000     286
132.8400     255
132.8800     260
132.9200     265
132.9600     276
133.0000     246
133.0400     282
133.0800     252
133.1200     262
133.1600     273
133.2000     273
133.2400     257
133.2800     253
133.3200     271
133.3600     262
133.4000     269
133.4400     269
133.4800     275
133.5200     249
133.5600     275
133.6000     249
133.6400     279
133.6800     298
133.7200     281
133.7600     257
133.8000     251
133.8400     251
133.8800     246
133.9200     249
133.9600     282
134.0000     257
134.0400     254
134.0800     259
134.1200     249
134.1600     274
134.2000     269
134.2400     293
134.2800     285
134.3200     270
134.3600     254
134.4000     262
134.4400     278
134.4800     270
134.5200     255
134.5600     261
134.6000     247
134.6400     261
134.6800     254
134.7200     272
134.7600     289
134.8000     261
134.8400     244
134.8800     292
134.9200     237
134.9600     254
135.0000     272
135.0400     241
135.0800     268
135.1200     253
135.1600     256
135.2000     260
135.2400     299
135.2800     269
135.3200     273
135.3600     274
135.4000     244
135.4400     247
135.4800     252
135.5200     272
135.5600     276
135.6000     279
135.6400     283
135.6800     287
135.7200     251
135.7600     259
135.8000     295
135.8400     290
135.8800     277
135.9200     262
135.9600     264
136.0000     283
136.0400     245
136.0800     251
136.1200     254
136.1600     255
136.2000     278
136.2400     246
136.2800     281
136.3200     274
136.3600     252
136.4000     283
136.4400     262
136.4800     268
136.5200     290
136.5600     275
136.6000     271
136.6400     277
136.6800     261
136.7200     274
136.7600     254
136.8000     283
136.8400     252
136.8800     242
136.9200     241
136.9600     262
137.0000     302
137.0400     276
137.0800     266
137.1200     267
137.1600     253
137.2000     281
137.2400     247
137.2800     241
137.3200     275
137.3600     243
137.4000     265
137.4400     292
137.4800     278
137.5200     264
137.5600     259
137.6000     283
137.6400     271
137.6800     311
137.7200     291
137.7600     277
137.8000     294
137.8400     277
137.8800     247
137.9200     282
137.9600     245
138.0000     273
138.0400     298
138.0800     258
138.1200     262
138.1600     260
138.2000     278
138.2400     293
138.2800     260
138.3200     282
138.3600     300
138.4000     286
138.4400     252
138.4800     271
138.5200     285
138.5600     298
138.6000     272
138.6400     275
138.6800     261
138.7200     285
138.7600     293
138.8000     277
138.8400     272
138.8800     229
138.9200     222
138.9600     293
139.0000     292
139.0400     283
139.0800     250
139.1200     259
139.1600     251
139.2000     267
139.2400     299
139.2800     298
139.3200     267
139.3600     268
139.4000     249
139.4400     293
139.4800     272
139.5200     292
139.5600     268
139.6000     290
139.6400     266
139.6800     283
139.7200     251
139.7600     259
139.8000     284
139.8400     272
139.8800     277
139.9200     240
139.9600     298
140.0000     251
140.0400     280
140.0800     274
140.1200     281
140.1600     290
140.2000     254
140.2400     271
140.2800     276
140.3200     272
140.3600     313
140.4000     281
140.4400     272
140.4800     293
140.5200     246
140.5600     308
140.6000     301
140.6400     283
140.6800     244
140.7200     278
140.7600     275
140.8000     277
140.8400     279
140.8800     293
140.9200     263
140.9600     273
141.0000     281
141.0400     259
141.0800     267
141.1200     294
141.1600     257
141.2000     294
141.2400     258
141.2800     280
141.3200     267
141.3600     273
141.4000     310
141.4400     274
141.4800     263
141.5200     268
141.5600     287
141.6000     255
141.6400     272
141.6800     292
141.7200     278
141.7600     260
141.8000     240
141.8400     302
141.8800     300
141.9200     287
141.9600     266
142.0000     274
142.0400     295
142.0800     287
142.1200     263
142.1600     297
142.2000     255
142.2400     251
142.2800     281
142.3200     275
142.3600     245
142.4000     282
142.4400     241
142.4800     280
142.5200     268
142.5600     247
142.6000     269
142.6400     272
142.6800     295
142.7200     252
142.7600     269
142.8000     270
142.8400     287
142.8800     267
142.9200     277
142.9600     270
143.0000     292
143.0400     264
143.0800     252
143.1200     293
143.1600     268
143.2000     262
143.2400     272
143.2800     260
143.3200     308
143.3600     274
143.4000     286
143.4400     280
143.4800     289
143.5200     248
143.5600     263
143.6000     298
143.6400     284
143.6800     289
143.7200     302
143.7600     246
143.8000     283
143.8400     285
143.8800     285
143.9200     267
143.9600     259
144.0000     281
144.0400     278
144.0800     275
144.1200     272
144.1600     275
144.2000     238
144.2400     271
144.2800     291
144.3200     290
144.3600     291
144.4000     298
144.4400     268
144.4800     260
144.5200     280
144.5600     279
144.6000     257
144.6400     276
144.6800     255
144.7200     277
144.7600     296
144.8000     274
144.8400     284
144.8800     282
144.9200     295
144.9600     298
145.0000     290
145.0400     264
145.0800     286
145.1200     274
145.1600     259
145.2000     280
145.2400     263
145.2800     281
145.3200     259
145.3600     233
145.4000     272
145.4400     276
145.4800     297
145.5200     278
145.5600     290
145.6000     232
145.6400     272
145.6800     281
145.7200     277
145.7600     279
145.8000     293
145.8400     273
145.8800     270
145.9200     226
145.9600     259
146.0000     266
146.0400     271
146.0800     279
146.1200     264
146.1600     275
146.2000     258
146.2400     272
146.2800     267
146.3200     289
146.3600     282
146.4000     279
146.4400     295
146.4800     280
146.5200     273
146.5600     254
146.6000     273
146.6400     276
146.6800     289
146.7200     239
146.7600     281
146.8000     261
146.8400     288
146.8800     252
146.9200     273
146.9600     285
147.0000     264
147.0400     275
147.0800     260
147.1200     275
147.1600     261
147.2000     268
147.2400     259
147.2800     270
147.3200     272
147.3600     289
147.4000     256
147.4400     293
147.4800     258
147.5200     287
147.5600     261
147.6000     241
147.6400     246
147.6800     272
147.7200     291
147.7600     303
147.8000     267
147.8400     275
147.8800     276
147.9200     270
147.9600     266
148.0000     298
148.0400     296
148.0800     236
148.1200     247
148.1600     283
148.2000     256
148.2400     303
148.2800     254
148.3200     272
148.3600     282
148.4000     280
148.4400     263
148.4800     238
148.5200     252
148.5600     277
148.6000     312
148.6400     292
148.6800     300
148.7200     304
148.7600     268
148.8000     284
148.8400     261
148.8800     267
148.9200     284
148.9600     293
149.0000     274
149.0400     253
149.0800     296
149.1200     266
149.1600     261
149.2000     286
149.2400     280
149.2800     261
149.3200     305
149.3600     259
149.4000     279
149.4400     271
149.4800     272
149.5200     285
149.5600     271
149.6000     271
149.6400     262
149.6800     288
149.7200     254
149.7600     269
149.8000     302
149.8400     299
149.8800     284
149.9200     285
149.9600     286
150.0000     297
150.0400     304
150.0800     296
150.1200     305
150.1600     278
150.2000     248
150.2400     279
150.2800     280
150.3200     277
150.3600     290
150.4000     273
150.4400     283
150.4800     260
150.5200     315
150.5600     321
150.6000     278
150.6400     251
150.6800     280
150.7200     274
150.7600     256
150.8000     297
150.8400     303
150.8800     285
150.9200     264
150.9600     318
151.0000     283
151.0400     277
151.0800     287
151.1200     263
151.1600     310
151.2000     264
151.2400     291
151.2800     277
151.3200     276
151.3600     293
151.4000     288
151.4400     268
151.4800     315
151.5200     277
151.5600     294
151.6000     294
151.6400     282
151.6800     279
151.7200     294
151.7600     300
151.8000     308
151.8400     285
151.8800     279
151.9200     338
151.9600     319