File: XRD_Tool/XRD_Tool/bin/Debug/LDA_sample_name_56789_Psi-30_20180603-122827.txt
128.0000     248
128.0400     256
128.0800     269
128.1200     282
128.1600     229
128.2000     266
128.2400     241
128.2800     252
128.3200     229
128.3600     276
128.4000     283
128.4400     275
128.4800     248
128.5200     246
128.5600     247
128.6000     269
128.6400     254
128.6800     256
128.7200     266
128.7600     245
128.8000     258
128.8400     269
128.8800     244
128.9200     287
128.9600     236
129.0000     252
129.0400     252
129.0800     244
129.1200     279
129.1600     269
129.2000     234
129.2400     275
129.2800     298
129.3200     241
129.3600     270
129.4000     276
129.4400     223
129.4800     253
129.5200     231
129.5600     270
129.6000     262
129.6400     252
129.6800     249
129.7200     232
129.7600     258
129.8000     236
129.8400     224
129.8800     274
129.9200     244
129.9600     272
130.0000     260
130.0400     270
130.0800     274
130.1200     243
130.1600     226
130.2000     266
130.2400     281
130.2800     261
130.3200     243
130.3600     261
130.4000     253
130.4400     288
130.4800     268
130.5200     256
130.5600     240
130.6000     266
130.6400     255
130.6800     273
130.7200     260
130.7600     263
130.8000     225
130.8400     221
130.8800     254
130.9200     240
130.9600     251
131.0000     280
131.0400     238
131.0800     239
131.1200     276
131.1600     259
131.2000     280
131.2400     258
131.2800     254
131.3200     281
131.3600     264
131.4000     271
131.4400     247
131.4800     272
131.5200     250
131.5600     263
131.6000     238
131.6400     225
131.6800     252
131.7200     230
131.7600     247
131.8000     276
131.8400     275
131.8800     272
131.9200     274
131.9600     266
132.0000     265
132.0400     247
132.0800     263
132.1200     248
132.1600     286
132.2000     244
132.2400     309
132.2800     253
132.3200     285
132.3600     281
132.4000     271
132.4400     288
132.4800     280
132.5200     272
132.5600     300
132.6000     264
132.6400     268
132.6800     251
132.7200     276
132.7600     283
132.8000     251
132.8400     239
132.8800     284
132.9200     262
132.9600     278
133.0000     271
133.0400     260
133.0800     241
133.1200     251
133.1600     280
133.2000     261
133.2400     273
133.2800     267
133.3200     275
133.3600     268
133.4000     260
133.4400     283
133.4800     256
133.5200     275
133.5600     308
133.6000     255
133.6400     281
133.6800     267
133.7200     260
133.7600     279
133.8000     273
133.8400     268
133.8800     275
133.9200     265
133.9600     263
134.0000     268
134.0400     299
134.0800     292
134.1200     276
134.1600     255
134.2000     268
134.2400     254
134.2800     265
134.3200     279
134.3600     261
134.4000     254
134.4400     289
134.4800     253
134.5200     241
134.5600     288
134.6000     261
134.6400     268
134.6800     280
134.7200     265
134.7600     240
134.8000     246
134.8400     250
134.8800     274
134.9200     241
134.9600     287
135.0000     281
135.0400     278
135.0800     268
135.1200     261
135.1600     255
135.2000     235
135.2400     263
135.2800     269
135.3200     287
135.3600     296
135.4000     306
135.4400     288
135.4800     256
135.5200     265
135.5600     274
135.6000     256
135.6400     272
135.6800     259
135.7200     264
135.7600     269
135.8000     289
135.8400     265
135.8800     277
135.9200     257
135.9600     273
136.0000     273
136.0400     246
136.0800     274
136.1200     266
136.1600     274
136.2000     284
136.2400     266
136.2800     261
136.3200     274
136.3600     254
136.4000     268
136.4400     275
136.4800     258
136.5200     229
136.5600     258
136.6000     283
136.6400     258
136.6800     242
136.7200     247
136.7600     275
136.8000     276
136.8400     276
136.8800     259
136.9200     294
136.9600     235
137.0000     275
137.0400     252
137.0800     279
137.1200     279
137.1600     250
137.2000     242
137.2400     290
137.2800     264
137.3200     277
137.3600     270
137.4000     279
137.4400     311
137.4800     280
137.5200     298
137.5600     251
137.6000     273
137.6400     312
137.6800     288
137.7200     279
137.7600     259
137.8000     226
137.8400     308
137.8800     278
137.9200     294
137.9600     307
138.0000     277
138.0400     262
138.0800     290
138.1200     244
138.1600     283
138.2000     293
138.2400     292
138.2800     303
138.3200     263
138.3600     294
138.4000     265
138.4400     307
138.4800     305
138.5200     278
138.5600     304
138.6000     280
138.6400     262
138.6800     263
138.7200     265
138.7600     257
138.8000     278
138.8400     309
138.8800     286
138.9200     254
138.9600     288
139.0000     292
139.0400     282
139.0800     270
139.1200     267
139.1600     283
139.2000     277
139.2400     275
139.2800     270
139.3200     258
139.3600     262
139.4000     297
139.4400     279
139.4800     285
139.5200     278
139.5600     267
139.6000     292
139.6400     295
139.6800     261
139.7200     282
139.7600     292
139.8000     279
139.8400     262
139.8800     286
139.9200     296
139.9600     250
140.0000     258
140.0400     252
140.0800     280
140.1200     266
140.1600     298
140.2000     307
140.2400     272
140.2800     270
140.3200     303
140.3600     256
140.4000     280
140.4400     270
140.4800     255
140.5200     267
140.5600     271
140.6000     266
140.6400     298
140.6800     293
140.7200     277
140.7600     298
140.8000     269
140.8400     270
140.8800     269
140.9200     247
140.9600     245
141.0000     260
141.0400     295
141.0800     276
141.1200     273
141.1600     305
141.2000     279
141.2400     295
141.2800     282
141.3200     245
141.3600     256
141.4000     262
141.4400     278
141.4800     288
141.5200     274
141.5600     254
141.6000     250
141.6400     311
141.6800     275
141.7200     276
141.7600     250
141.8000     253
141.8400     262
141.8800     255
141.9200     285
141.9600     280
142.0000     288
142.0400     259
142.0800     284
142.1200     286
142.1600     283
142.2000     262
142.2400     256
142.2800     282
142.3200     265
142.3600     289
142.4000     248
142.4400     257
142.4800     306
142.5200     274
142.5600     255
142.6000     274
142.6400     283
142.6800     308
142.7200     277
142.7600     294
142.8000     269
142.8400     246
142.8800     269
142.9200     288
142.9600     310
143.0000     258
143.0400     294
143.0800     275
143.1200     282
143.1600     256
143.2000     289
143.2400     264
143.2800     269
143.3200     261
143.3600     269
143.4000     280
143.4400     271
143.4800     283
143.5200     281
143.5600     275
143.6000     285
143.6400     238
143.6800     285
143.7200     296
143.7600     252
143.8000     257
143.8400     284
143.8800     273
143.9200     277
143.9600     306
144.0000     266
144.0400     274
144.0800     235
144.1200     260
144.1600     272
144.2000     274
144.2400     281
144.2800     259
144.3200     295
144.3600     265
144.4000     280
144.4400     291
144.4800     303
144.5200     282
144.5600     300
144.6000     287
144.6400     264
144.6800     277
144.7200     270
144.7600     227
144.8000     265
144.8400     259
144.8800     262
144.9200     297
144.9600     253
145.0000     284
145.0400     271
145.0800     277
145.1200     291
145.1600     264
145.2000     239
145.2400     253
145.2800     256
145.3200     280
145.3600     265
145.4000     287
145.4400     255
145.4800     249
145.5200     275
145.5600     282
145.6000     267
145.6400     259
145.6800     248
145.7200     296
145.7600     272
145.8000     288
145.8400     262
145.8800     283
145.9200     267
145.9600     271
146.0000     292
146.0400     277
146.0800     258
146.1200     268
146.1600     278
146.2000     287
146.2400     295
146.2800     241
146.3200     263
146.3600     265
146.4000     270
146.4400     254
146.4800     296
146.5200     253
146.5600     254
146.6000     272
146.6400     272
146.6800     231
146.7200     225
146.7600     278
146.8000     260
146.8400     274
146.8800     295
146.9200     271
146.9600     254
147.0000     289
147.0400     274
147.0800     282
147.1200     269
147.1600     277
147.2000     281
147.2400     262
147.2800     288
147.3200     282
147.3600     260
147.4000     269
147.4400     253
147.4800     258
147.5200     228
147.5600     261
147.6000     259
147.6400     292
147.6800     272
147.7200     294
147.7600     299
147.8000     294
147.8400     269
147.8800     308
147.9200     260
147.9600     238
148.0000     275
148.0400     276
148.0800     276
148.1200     266
148.1600     265
148.2000     284
148.2400     288
148.2800     284
148.3200     277
148.3600     244
148.4000     275
148.4400     307
148.4800     266
148.5200     291
148.5600     269
148.6000     279
148.6400     250
148.6800     301
148.7200     301
148.7600     295
148.8000     288
148.8400     277
148.8800     301
148.9200     238
148.9600     290
149.0000     294
149.0400     270
149.0800     282
149.1200     280
149.1600     279
149.2000     278
149.2400     295
149.2800     287
149.3200     287
149.3600     286
149.4000     289
149.4400     263
149.4800     332
149.5200     290
149.5600     282
149.6000     265
149.6400     268
149.6800     270
149.7200     276
149.7600     280
149.8000     315
149.8400     298
149.8800     299
149.9200     265
149.9600     269
150.0000     281
150.0400     280
150.0800     275
150.1200     304
150.1600     283
150.2000     295
150.2400     292
150.2800     289
150.3200     260
150.3600     281
150.4000     299
150.4400     282
150.4800     268
150.5200     262
150.5600     305
150.6000     292
150.6400     271
150.6800     244
150.7200     297
150.7600     279
150.8000     297
150.8400     301
150.8800     314
150.9200     269
150.9600     297
151.0000     295
151.0400     268
151.0800     250
151.1200     278
151.1600     255
151.2000     275
151.2400     289
151.2800     321
151.3200     280
151.3600     288
151.4000     289
151.4400     289
151.4800     287
151.5200     285
151.5600     292
151.6000     287
151.6400     257
151.6800     288
151.7200     306
151.7600     293
151.8000     282
151.8400     287
151.8800     276
151.9200     287
151.9600     281