File: XRD_Tool/XRD_Tool/bin/Debug/LDA_sample_name_56789_Psi-0_20180623-000329.txt
141.0000     244
141.0200     260
141.0400     279
141.0600     289
141.0800     246
141.1000     185
141.1200     140
141.1400     107
141.1600      98
141.1800     100
141.2000     115
141.2200     133
141.2400     139
141.2600     146
141.2800     178
141.3000     220
141.3200     262
141.3400     298
141.3600     299
141.3800     278
141.4000     210
141.4200     142
141.4400     161
141.4600     212
141.4800     246
141.5000     269
141.5200     265
141.5400     246
141.5600     197
141.5800     148
141.6000     154
141.6200     185
141.6400     229
141.6600     275
141.6800     298
141.7000     308
141.7200     298
141.7400     265
141.7600     155
141.7800      53
141.8000     138
141.8200     272
141.8400     276
141.8600     237
141.8800     246
141.9000     270
141.9200     276
141.9400     270
141.9600     242
141.9800     211
142.0000     205
142.0200     205
142.0400     182
142.0600     163
142.0800     212
142.1000     272
142.1200     252
142.1400     207
142.1600     194
142.1800     195
142.2000     206
142.2200     212
142.2400     181
142.2600     148
142.2800     175
142.3000     212
142.3200     174
142.3400     119
142.3600     127
142.3800     162
142.4000     201
142.4200     244
142.4400     302
142.4600     345
142.4800     283
142.5000     196
142.5200     197
142.5400     228
142.5600     236
142.5800     237
142.6000     256
142.6200     271
142.6400     228
142.6600     183
142.6800     243
142.7000     320
142.7200     270
142.7400     188
142.7600     196
142.7800     226
142.8000     188
142.8200     136
142.8400     152
142.8600     187
142.8800     177
142.9000     159
142.9200     191
142.9400     229
142.9600     197
142.9800     153
143.0000     191
143.0200     246
143.0400     224
143.0600     178
143.0800     159
143.1000     156
143.1200     181
143.1400     209
143.1600     195
143.1800     175
143.2000     204
143.2200     242
143.2400     233
143.2600     216
143.2800     251
143.3000     291
143.3200     256
143.3400     199
143.3600     187
143.3800     189
143.4000     174
143.4200     161
143.4400     193
143.4600     245
143.4800     306
143.5000     356
143.5200     337
143.5400     284
143.5600     195
143.5800     110
143.6000     121
143.6200     167
143.6400     192
143.6600     199
143.6800     162
143.7000     127
143.7200     184
143.7400     257
143.7600     227
143.7800     173
143.8000     209
143.8200     255
143.8400     176
143.8600      78
143.8800     142
143.9000     254
143.9200     291
143.9400     289
143.9600     250
143.9800     201
144.0000     174
144.0200     157
144.0400     143
144.0600     133
144.0800     130
144.1000     139
144.1200     198
144.1400     261
144.1600     249
144.1800     212
144.2000     200
144.2200     203
144.2400     233
144.2600     260
144.2800     223
144.3000     169
144.3200     150
144.3400     154
144.3600     196
144.3800     255
144.4000     319
144.4200     369
144.4400     338
144.4600     279
144.4800     245
144.5000     225
144.5200     225
144.5400     228
144.5600     207
144.5800     181
144.6000     175
144.6200     186
144.6400     239
144.6600     291
144.6800     256
144.7000     198
144.7200     195
144.7400     209
144.7600     191
144.7800     168
144.8000     175
144.8200     193
144.8400     199
144.8600     204
144.8800     221
144.9000     236
144.9200     214
144.9400     181
144.9600     160
144.9800     149
145.0000     164
145.0200     190
145.0400     216
145.0600     237
145.0800     228
145.1000     208
145.1200     188
145.1400     174
145.1600     188
145.1800     204
145.2000     167
145.2200     127
145.2400     175
145.2600     251
145.2800     289
145.3000     306
145.3200     300
145.3400     284
145.3600     271
145.3800     256
145.4000     223
145.4200     196
145.4400     235
145.4600     293
145.4800     308
145.5000     302
145.5200     279
145.5400     248
145.5600     207
145.5800     173
145.6000     189
145.6200     233
145.6400     315
145.6600     394
145.6800     378
145.7000     329
145.7200     302
145.7400     291
145.7600     318
145.7800     344
145.8000     287
145.8200     212
145.8400     214
145.8600     242
145.8800     253
145.9000     261
145.9200     286
145.9400     314
145.9600     325
145.9800     321
146.0000     275
146.0200     236
146.0400     309
146.0600     401
146.0800     366
146.1000     288
146.1200     249
146.1400     227
146.1600     216
146.1800     218
146.2000     257
146.2200     301
146.2400     295
146.2600     272
146.2800     264
146.3000     262
146.3200     263
146.3400     261
146.3600     236
146.3800     204
146.4000     185
146.4200     174
146.4400     178
146.4600     192
146.4800     226
146.5000     261
146.5200     261
146.5400     255
146.5600     289
146.5800     323
146.6000     277
146.6200     213
146.6400     218
146.6600     251
146.6800     292
146.7000     322
146.7200     279
146.7400     225
146.7600     261
146.7800     325
146.8000     354
146.8200     356
146.8400     298
146.8600     232
146.8800     246
146.9000     292
146.9200     340
146.9400     372
146.9600     327
146.9800     266
147.0000     278
147.0200     313
147.0400     308
147.0600     291
147.0800     287
147.1000     289
147.1200     291
147.1400     292
147.1600     285
147.1800     272
147.2000     244
147.2200     223
147.2400     269
147.2600     327
147.2800     318
147.3000     289
147.3200     293
147.3400     307
147.3600     300
147.3800     289
147.4000     303
147.4200     314
147.4400     265
147.4600     211
147.4800     260
147.5000     327
147.5200     278
147.5400     208
147.5600     271
147.5800     368
147.6000     368
147.6200     332
147.6400     301
147.6600     287
147.6800     341
147.7000     405
147.7200     378
147.7400     322
147.7600     309
147.7800     314
147.8000     322
147.8200     329
147.8400     321
147.8600     318
147.8800     367
147.9000     413
147.9200     341
147.9400     248
147.9600     291
147.9800     371
148.0000     361
148.0200     324
148.0400     329
148.0600     349
148.0800     359
148.1000     360
148.1200     334
148.1400     305
148.1600     313
148.1800     332
148.2000     334
148.2200     329
148.2400     321
148.2600     311
148.2800     304
148.3000     299
148.3200     296
148.3400     298
148.3600     322
148.3800     349
148.4000     354
148.4200     349
148.4400     339
148.4600     337
148.4800     382
148.5000     435
148.5200     433
148.5400     404
148.5600     351
148.5800     309
148.6000     362
148.6200     431
148.6400     382
148.6600     295
148.6800     254
148.7000     240
148.7200     261
148.7400     292
148.7600     296
148.7800     298
148.8000     335
148.8200     377
148.8400     369
148.8600     347
148.8800     357
148.9000     371
148.9200     343
148.9400     308
148.9600     315
148.9800     333
149.0000     321
149.0200     304
149.0400     325
149.0600     350
149.0800     322
149.1000     279
149.1200     271
149.1400     272
149.1600     250
149.1800     228
149.2000     256
149.2200     303
149.2400     348
149.2600     389
149.2800     417
149.3000     436
149.3200     438
149.3400     435
149.3600     434
149.3800     423
149.4000     360
149.4200     287
149.4400     266
149.4600     267
149.4800     276
149.5000     278
149.5200     232
149.5400     182
149.5600     212
149.5800     266
149.6000     282
149.6200     291
149.6400     348
149.6600     401
149.6800     337
149.7000     253
149.7200     294
149.7400     370
149.7600     368
149.7800     343
149.8000     365
149.8200     392
149.8400     354
149.8600     297
149.8800     276
149.9000     273
149.9200     280
149.9400     295
149.9600     327
149.9800     362
150.0000     380
150.0200     393
150.0400     413
150.0600     435
150.0800     455
150.1000     467
150.1200     441
150.1400     408
150.1600     418
150.1800     444
150.2000     460
150.2200     457
150.2400     376
150.2600     295
150.2800     372
150.3000     484
150.3200     456
150.3400     389
150.3600     409
150.3800     459
150.4000     487
150.4200     497
150.4400     459
150.4600     421
150.4800     485
150.5000     566
150.5200     532
150.5400     469
150.5600     496
150.5800     537
150.6000     476
150.6200     400
150.6400     454
150.6600     539
150.6800     516
150.7000     463
150.7200     477
150.7400     511
150.7600     515
150.7800     513
150.8000     544
150.8200     578
150.8400     562
150.8600     530
150.8800     516
150.9000     508
150.9200     487
150.9400     473
150.9600     519
150.9800     585
151.0000     633
151.0200     669
151.0400     690
151.0600     692
151.0800     637
151.1000     560
151.1200     483
151.1400     436
151.1600     536
151.1800     664
151.2000     645
151.2200     582
151.2400     591
151.2600     625
151.2800     641
151.3000     646
151.3200     641
151.3400     637
151.3600     663
151.3800     693
151.4000     683
151.4200     655
151.4400     620
151.4600     603
151.4800     686
151.5000     782
151.5200     740
151.5400     659
151.5600     663
151.5800     705
151.6000     769
151.6200     825
151.6400     806
151.6600     770
151.6800     802
151.7000     841
151.7200     773
151.7400     691
151.7600     748
151.7800     853
151.8000     924
151.8200     959
151.8400     876
151.8600     769
151.8800     779
151.9000     824
151.9200     815
151.9400     793
151.9600     806
151.9800     839
152.0000     895
152.0200     949
152.0400     938
152.0600     904
152.0800     882
152.1000     864
152.1200     844
152.1400     840
152.1600     918
152.1800    1006
152.2000     986
152.2200     945
152.2400    1019
152.2600    1119
152.2800    1120
152.3000    1079
152.3200    1018
152.3400     975
152.3600    1059
152.3800    1185
152.4000    1271
152.4200    1320
152.4400    1264
152.4600    1185
152.4800    1204
152.5000    1269
152.5200    1368
152.5400    1468
152.5600    1511
152.5800    1506
152.6000    1376
152.6200    1237
152.6400    1300
152.6600    1426
152.6800    1465
152.7000    1476
152.7200    1524
152.7400    1584
152.7600    1634
152.7800    1665
152.8000    1624
152.8200    1565
152.8400    1560
152.8600    1569
152.8800    1544
152.9000    1532
152.9200    1650
152.9400    1794
152.9600    1808
152.9800    1787
153.0000    1848
153.0200    1927
153.0400    1934
153.0600    1907
153.0800    1855
153.1000    1816
153.1200    1887
153.1400    1989
153.1600    2021
153.1800    2024
153.2000    2022
153.2200    2030
153.2400    2095
153.2600    2162
153.2800    2124
153.3000    2067
153.3200    2130
153.3400    2213
153.3600    2163
153.3800    2089
153.4000    2166
153.4200    2286
153.4400    2316
153.4600    2325
153.4800    2409
153.5000    2505
153.5200    2506
153.5400    2457
153.5600    2341
153.5800    2227
153.6000    2252
153.6200    2327
153.6400    2377
153.6600    2432
153.6800    2567
153.7000    2704
153.7200    2696
153.7400    2618
153.7600    2478
153.7800    2339
153.8000    2325
153.8200    2386
153.8400    2570
153.8600    2752
153.8800    2671
153.9000    2524
153.9200    2570
153.9400    2668
153.9600    2638
153.9800    2565
154.0000    2537
154.0200    2550
154.0400    2678
154.0600    2807
154.0800    2709
154.1000    2553
154.1200    2555
154.1400    2610
154.1600    2607
154.1800    2596
154.2000    2663
154.2200    2737
154.2400    2691
154.2600    2607
154.2800    2572
154.3000    2571
154.3200    2648
154.3400    2724
154.3600    2638
154.3800    2516
154.4000    2529
154.4200    2595
154.4400    2653
154.4600    2677
154.4800    2554
154.5000    2405
154.5200    2416
154.5400    2468
154.5600    2400
154.5800    2320
154.6000    2417
154.6200    2556
154.6400    2555
154.6600    2499
154.6800    2455
154.7000    2408
154.7200    2331
154.7400    2261
154.7600    2294
154.7800    2352
154.8000    2327
154.8200    2283
154.8400    2307
154.8600    2342
154.8800    2294
154.9000    2212
154.9200    2130
154.9400    2059
154.9600    2043
154.9800    2038
155.0000    1978
155.0200    1912
155.0400    1924
155.0600    1970
155.0800    2024
155.1000    2069
155.1200    2046
155.1400    2005
155.1600    2012
155.1800    2020
155.2000    1933
155.2200    1832
155.2400    1843
155.2600    1889
155.2800    1888
155.3000    1859
155.3200    1783
155.3400    1699
155.3600    1662
155.3800    1659
155.4000    1731
155.4200    1798
155.4400    1692
155.4600    1544
155.4800    1539
155.5000    1588
155.5200    1622
155.5400    1652
155.5600    1694
155.5800    1717
155.6000    1628
155.6200    1516
155.6400    1514
155.6600    1546
155.6800    1528
155.7000    1506
155.7200    1561
155.7400    1623
155.7600    1567
155.7800    1475
155.8000    1444
155.8200    1433
155.8400    1396
155.8600    1354
155.8800    1343
155.9000    1348
155.9200    1363
155.9400    1378
155.9600    1366
155.9800    1344
156.0000    1319
156.0200    1285
156.0400    1211
156.0600    1145
156.0800    1199
156.1000    1276
156.1200    1226
156.1400    1138
156.1600    1112
156.1800    1115
156.2000    1141
156.2200    1165
156.2400    1126
156.2600    1055
156.2800     952
156.3000     860
156.3200     888
156.3400     967
156.3600    1058
156.3800    1121
156.4000    1020
156.4200     886
156.4400     907
156.4600     984
156.4800    1024
156.5000    1038
156.5200     992
156.5400     929
156.5600     901
156.5800     892
156.6000     908
156.6200     925
156.6400     896
156.6600     860
156.6800     885
156.7000     923
156.7200     901
156.7400     848
156.7600     759
156.7800     678
156.8000     715
156.8200     794
156.8400     850
156.8600     883
156.8800     849
156.9000     812
156.9200     890
156.9400     978
156.9600     883
156.9800     739
157.0000     718
157.0200     741
157.0400     741
157.0600     730
157.0800     714
157.1000     698
157.1200     692
157.1400     705
157.1600     791
157.1800     874
157.2000     792
157.2200     665
157.2400     640
157.2600     659
157.2800     693
157.3000     722
157.3200     697
157.3400     656
157.3600     637
157.3800     632
157.4000     654
157.4200     682
157.4400     693
157.4600     693
157.4800     670
157.5000     642
157.5200     634
157.5400     629
157.5600     600
157.5800     567
157.6000     554
157.6200     547
157.6400     523
157.6600     497
157.6800     491
157.7000     494
157.7200     502
157.7400     517
157.7600     556
157.7800     594
157.8000     583
157.8200     552
157.8400     516
157.8600     493
157.8800     545
157.9000     611
157.9200     597
157.9400     551
157.9600     500
157.9800     452
158.0000     421
158.0200     412
158.0400     481
158.0600     560
158.0800     532
158.1000     461
158.1200     384
158.1400     324
158.1600     364
158.1800     432
158.2000     440
158.2200     429
158.2400     444
158.2600     463
158.2800     447
158.3000     430
158.3200     477
158.3400     531
158.3600     500
158.3800     442
158.4000     426
158.4200     427
158.4400     436
158.4600     453
158.4800     495
158.5000     539
158.5200     540
158.5400     520
158.5600     483
158.5800     449
158.6000     463
158.6200     498
158.6400     535
158.6600     556
158.6800     495
158.7000     414
158.7200     397
158.7400     409
158.7600     446
158.7800     489
158.8000     515
158.8200     520
158.8400     450
158.8600     362
158.8800     332
158.9000     326
158.9200     320
158.9400     322
158.9600     364
158.9800     417
159.0000     442
159.0200     443
159.0400     379
159.0600     309
159.0800     342
159.1000     406
159.1200     419
159.1400     411
159.1600     403
159.1800     400
159.2000     427
159.2200     460
159.2400     470
159.2600     458
159.2800     386
159.3000     316
159.3200     377
159.3400     461
159.3600     395
159.3800     290
159.4000     290
159.4200     327
159.4400     336
159.4600     341
159.4800     379
159.5000     416
159.5200     380
159.5400     326
159.5600     334
159.5800     365
159.6000     394
159.6200     417
159.6400     417
159.6600     412
159.6800     435
159.7000     456
159.7200     411
159.7400     351
159.7600     351
159.7800     369
159.8000     362
159.8200     346
159.8400     342
159.8600     339
159.8800     322
159.9000     305
159.9200     308
159.9400     315
159.9600     299
159.9800     278
160.0000     284
160.0200     301
160.0400     326
160.0600     348
160.0800     340
160.1000     318
160.1200     283
160.1400     240
160.1600     185
160.1800     131
160.2000     109
160.2200     117
160.2400     217
160.2600     330
160.2800     328
160.3000     290
160.3200     302
160.3400     327
160.3600     320
160.3800     305
160.4000     312
160.4200     326
160.4400     331
160.4600     325
160.4800     278
160.5000     224
160.5200     223
160.5400     242
160.5600     254
160.5800     266
160.6000     285
160.6200     309
160.6400     341
160.6600     365
160.6800     329
160.7000     291
160.7200     365
160.7400     456
160.7600     412
160.7800     336
160.8000     373
160.8200     444
160.8400     460
160.8600     450
160.8800     417
160.9000     373
160.9200     319
160.9400     268
160.9600     254
160.9800     251
161.0000     234
161.0200     219
161.0400     234
161.0600     259
161.0800     267
161.1000     271
161.1200     282
161.1400     302
161.1600     350
161.1800     394
161.2000     358
161.2200     294
161.2400     252
161.2600     218
161.2800     184
161.3000     169
161.3200     251
161.3400     350
161.3600     349
161.3800     310
161.4000     289
161.4200     278
161.4400     281
161.4600     288
161.4800     291
161.5000     300
161.5200     341
161.5400     382
161.5600     361
161.5800     319
161.6000     292
161.6200     276
161.6400     278
161.6600     281
161.6800     249
161.7000     216
161.7200     245
161.7400     298
161.7600     349
161.7800     388
161.8000     369
161.8200     326
161.8400     278
161.8600     236
161.8800     236
161.9000     246
161.9200     226
161.9400     204
161.9600     233
161.9800     271
162.0000     248
162.0200     208
162.0400     209
162.0600     232
162.0800     280
162.1000     331
162.1200     342
162.1400     339
162.1600     343
162.1800     348
162.2000     350
162.2200     346
162.2400     323
162.2600     294
162.2800     267
162.3000     247
162.3200     259
162.3400     285
162.3600     324
162.3800     361
162.4000     360
162.4200     346
162.4400     347
162.4600     342
162.4800     282
162.5000     212
162.5200     202
162.5400     220
162.5600     261
162.5800     307
162.6000     333
162.6200     347
162.6400     341
162.6600     329
162.6800     324
162.7000     333
162.7200     395
162.7400     460
162.7600     428
162.7800     358
162.8000     285
162.8200     222
162.8400     217
162.8600     243
162.8800     309
162.9000     368
162.9200     307
162.9400     220
162.9600     240
162.9800     293
163.0000     303
163.0200     297
163.0400     306
163.0600     314
163.0800     292
163.1000     258
163.1200     222
163.1400     196
163.1600     222
163.1800     262
163.2000     272
163.2200     272
163.2400     285
163.2600     304
163.2800     325
163.3000     339
163.3200     313
163.3400     266
163.3600     197
163.3800     138
163.4000     174
163.4200     240
163.4400     261
163.4600     274
163.4800     334
163.5000     394
163.5200     366
163.5400     308
163.5600     283
163.5800     270
163.6000     249
163.6200     231
163.6400     246
163.6600     274
163.6800     299
163.7000     322
163.7200     340
163.7400     351
163.7600     338
163.7800     315
163.8000     287
163.8200     263
163.8400     268
163.8600     282
163.8800     287
163.9000     286
163.9200     265
163.9400     238
163.9600     216
163.9800     198
164.0000     192
164.0200     192
164.0400     200
164.0600     206
164.0800     184
164.1000     157
164.1200     163
164.1400     181
164.1600     186
164.1800     195
164.2000     252
164.2200     305
164.2400     241
164.2600     145
164.2800     116
164.3000     133
164.3200     245
164.3400     359
164.3600     291
164.3800     182
164.4000     228
164.4200     321
164.4400     339
164.4600     322
164.4800     282
164.5000     242
164.5200     254
164.5400     281
164.5600     286
164.5800     281
164.6000     269
164.6200     255
164.6400     241
164.6600     223
164.6800     185
164.7000     155
164.7200     204
164.7400     275
164.7600     306
164.7800     313
164.8000     287
164.8200     242
164.8400     175
164.8600     119
164.8800     160
164.9000     229
164.9200     246
164.9400     254
164.9600     324
164.9800     386