File: XRD_Tool/XRD_Tool/bin/Debug/LDA_sample_name_56789_Psi-0_20180623-000534.txt
138.0000     299
138.0200     287
138.0400     278
138.0600     273
138.0800     285
138.1000     289
138.1200     221
138.1400     140
138.1600     132
138.1800     156
138.2000     187
138.2200     219
138.2400     241
138.2600     254
138.2800     242
138.3000     219
138.3200     193
138.3400     176
138.3600     215
138.3800     260
138.4000     215
138.4200     147
138.4400     137
138.4600     152
138.4800     169
138.5000     191
138.5200     235
138.5400     277
138.5600     272
138.5800     261
138.6000     313
138.6200     370
138.6400     317
138.6600     237
138.6800     234
138.7000     263
138.7200     297
138.7400     323
138.7600     299
138.7800     262
138.8000     261
138.8200     276
138.8400     295
138.8600     306
138.8800     273
138.9000     237
138.9200     271
138.9400     319
138.9600     296
138.9800     255
139.0000     269
139.0200     292
139.0400     251
139.0600     200
139.0800     221
139.1000     259
139.1200     240
139.1400     208
139.1600     226
139.1800     258
139.2000     259
139.2200     245
139.2400     224
139.2600     209
139.2800     236
139.3000     266
139.3200     231
139.3400     182
139.3600     200
139.3800     234
139.4000     223
139.4200     198
139.4400     200
139.4600     211
139.4800     217
139.5000     223
139.5200     242
139.5400     265
139.5600     280
139.5800     282
139.6000     239
139.6200     188
139.6400     195
139.6600     227
139.6800     266
139.7000     298
139.7200     283
139.7400     248
139.7600     208
139.7800     170
139.8000     149
139.8200     151
139.8400     235
139.8600     328
139.8800     309
139.9000     257
139.9200     262
139.9400     280
139.9600     251
139.9800     205
140.0000     167
140.0200     143
140.0400     166
140.0600     201
140.0800     201
140.1000     194
140.1200     220
140.1400     257
140.1600     281
140.1800     296
140.2000     294
140.2200     291
140.2400     311
140.2600     333
140.2800     310
140.3000     276
140.3200     270
140.3400     287
140.3600     356
140.3800     421
140.4000     363
140.4200     271
140.4400     260
140.4600     274
140.4800     248
140.5000     217
140.5200     236
140.5400     266
140.5600     248
140.5800     217
140.6000     221
140.6200     240
140.6400     264
140.6600     285
140.6800     284
140.7000     277
140.7200     284
140.7400     291
140.7600     278
140.7800     257
140.8000     241
140.8200     224
140.8400     190
140.8600     161
140.8800     187
140.9000     240
140.9200     318
140.9400     391
140.9600     386
140.9800     350
141.0000     314
141.0200     273
141.0400     208
141.0600     155
141.0800     207
141.1000     283
141.1200     269
141.1400     228
141.1600     227
141.1800     245
141.2000     271
141.2200     290
141.2400     249
141.2600     199
141.2800     221
141.3000     270
141.3200     314
141.3400     342
141.3600     300
141.3800     238
141.4000     214
141.4200     211
141.4400     235
141.4600     260
141.4800     238
141.5000     207
141.5200     219
141.5400     247
141.5600     265
141.5800     280
141.6000     299
141.6200     313
141.6400     298
141.6600     273
141.6800     250
141.7000     230
141.7200     220
141.7400     223
141.7600     274
141.7800     329
141.8000     304
141.8200     251
141.8400     210
141.8600     185
141.8800     220
141.9000     268
141.9200     264
141.9400     245
141.9600     248
141.9800     262
142.0000     291
142.0200     322
142.0400     341
142.0600     346
142.0800     303
142.1000     246
142.1200     214
142.1400     198
142.1600     215
142.1800     249
142.2000     300
142.2200     350
142.2400     363
142.2600     359
142.2800     345
142.3000     330
142.3200     327
142.3400     328
142.3600     327
142.3800     325
142.4000     322
142.4200     320
142.4400     333
142.4600     355
142.4800     395
142.5000     425
142.5200     365
142.5400     283
142.5600     271
142.5800     289
142.6000     315
142.6200     336
142.6400     309
142.6600     271
142.6800     273
142.7000     293
142.7200     321
142.7400     346
142.7600     334
142.7800     310
142.8000     293
142.8200     284
142.8400     298
142.8600     321
142.8800     337
142.9000     354
142.9200     381
142.9400     403
142.9600     373
142.9800     327
143.0000     301
143.0200     286
143.0400     283
143.0600     292
143.0800     334
143.1000     375
143.1200     341
143.1400     294
143.1600     329
143.1800     382
143.2000     365
143.2200     322
143.2400     296
143.2600     286
143.2800     329
143.3000     386
143.3200     405
143.3400     404
143.3600     383
143.3800     346
143.4000     277
143.4200     220
143.4400     283
143.4600     372
143.4800     343
143.5000     270
143.5200     213
143.5400     174
143.5600     189
143.5800     225
143.6000     264
143.6200     305
143.6400     351
143.6600     382
143.6800     325
143.7000     248
143.7200     251
143.7400     278
143.7600     270
143.7800     252
143.8000     254
143.8200     268
143.8400     304
143.8600     340
143.8800     336
143.9000     321
143.9200     334
143.9400     348
143.9600     312
143.9800     274
144.0000     323
144.0200     389
144.0400     368
144.0600     333
144.0800     405
144.1000     499
144.1200     493
144.1400     456
144.1600     464
144.1800     477
144.2000     427
144.2200     352
144.2400     282
144.2600     235
144.2800     293
144.3000     373
144.3200     354
144.3400     312
144.3600     347
144.3800     392
144.4000     330
144.4200     247
144.4400     267
144.4600     319
144.4800     320
144.5000     306
144.5200     325
144.5400     346
144.5600     310
144.5800     262
144.6000     259
144.6200     277
144.6400     302
144.6600     330
144.6800     361
144.7000     387
144.7200     383
144.7400     369
144.7600     365
144.7800     358
144.8000     313
144.8200     269
144.8400     305
144.8600     351
144.8800     288
144.9000     207
144.9200     251
144.9400     332
144.9600     343
144.9800     323
145.0000     281
145.0200     250
145.0400     313
145.0600     388
145.0800     338
145.1000     256
145.1200     265
145.1400     306
145.1600     321
145.1800     320
145.2000     297
145.2200     268
145.2400     251
145.2600     250
145.2800     305
145.3000     371
145.3200     377
145.3400     361
145.3600     352
145.3800     348
145.4000     357
145.4200     361
145.4400     315
145.4600     267
145.4800     306
145.5000     356
145.5200     289
145.5400     206
145.5600     275
145.5800     382
145.6000     377
145.6200     339
145.6400     356
145.6600     383
145.6800     347
145.7000     293
145.7200     281
145.7400     292
145.7600     338
145.7800     388
145.8000     389
145.8200     370
145.8400     343
145.8600     310
145.8800     265
145.9000     221
145.9200     202
145.9400     197
145.9600     207
145.9800     223
146.0000     237
146.0200     259
146.0400     318
146.0600     378
146.0800     371
146.1000     347
146.1200     372
146.1400     409
146.1600     411
146.1800     396
146.2000     367
146.2200     330
146.2400     273
146.2600     227
146.2800     273
146.3000     343
146.3200     353
146.3400     339
146.3600     325
146.3800     310
146.4000     293
146.4200     284
146.4400     320
146.4600     365
146.4800     365
146.5000     352
146.5200     361
146.5400     371
146.5600     343
146.5800     302
146.6000     279
146.6200     263
146.6400     247
146.6600     237
146.6800     259
146.7000     291
146.7200     311
146.7400     322
146.7600     310
146.7800     296
146.8000     324
146.8200     361
146.8400     368
146.8600     359
146.8800     337
146.9000     313
146.9200     310
146.9400     317
146.9600     329
146.9800     333
147.0000     282
147.0200     224
147.0400     234
147.0600     270
147.0800     296
147.1000     315
147.1200     319
147.1400     310
147.1600     261
147.1800     214
147.2000     254
147.2200     315
147.2400     313
147.2600     283
147.2800     244
147.3000     218
147.3200     267
147.3400     341
147.3600     385
147.3800     412
147.4000     414
147.4200     399
147.4400     349
147.4600     304
147.4800     351
147.5000     416
147.5200     389
147.5400     344
147.5600     396
147.5800     465
147.6000     429
147.6200     362
147.6400     350
147.6600     356
147.6800     345
147.7000     330
147.7200     330
147.7400     341
147.7600     377
147.7800     415
147.8000     410
147.8200     394
147.8400     410
147.8600     427
147.8800     389
147.9000     348
147.9200     402
147.9400     475
147.9600     453
147.9800     390
148.0000     312
148.0200     246
148.0400     275
148.0600     324
148.0800     286
148.1000     235
148.1200     291
148.1400     378
148.1600     412
148.1800     417
148.2000     388
148.2200     359
148.2400     392
148.2600     433
148.2800     389
148.3000     332
148.3200     378
148.3400     450
148.3600     442
148.3800     402
148.4000     360
148.4200     332
148.4400     369
148.4600     419
148.4800     401
148.5000     359
148.5200     340
148.5400     339
148.5600     382
148.5800     435
148.6000     453
148.6200     450
148.6400     413
148.6600     370
148.6800     362
148.7000     377
148.7200     434
148.7400     485
148.7600     421
148.7800     329
148.8000     327
148.8200     357
148.8400     365
148.8600     365
148.8800     365
148.9000     368
148.9200     386
148.9400     412
148.9600     448
148.9800     469
149.0000     397
149.0200     304
149.0400     299
149.0600     335
149.0800     398
149.1000     466
149.1200     504
149.1400     513
149.1600     439
149.1800     353
149.2000     382
149.2200     440
149.2400     416
149.2600     369
149.2800     365
149.3000     374
149.3200     355
149.3400     342
149.3600     416
149.3800     499
149.4000     457
149.4200     385
149.4400     416
149.4600     480
149.4800     504
149.5000     499
149.5200     431
149.5400     361
149.5600     409
149.5800     485
149.6000     461
149.6200     413
149.6400     442
149.6600     493
149.6800     499
149.7000     482
149.7200     443
149.7400     408
149.7600     435
149.7800     476
149.8000     462
149.8200     438
149.8400     479
149.8600     547
149.8800     623
149.9000     676
149.9200     596
149.9400     481
149.9600     461
149.9800     478
150.0000     488
150.0200     493
150.0400     481
150.0600     460
150.0800     423
150.1000     393
150.1200     434
150.1400     492
150.1600     490
150.1800     463
150.2000     428
150.2200     391
150.2400     359
150.2600     337
150.2800     357
150.3000     400
150.3200     479
150.3400     554
150.3600     533
150.3800     484
150.4000     491
150.4200     515
150.4400     506
150.4600     489
150.4800     497
150.5000     512
150.5200     512
150.5400     502
150.5600     474
150.5800     445
150.6000     456
150.6200     477
150.6400     475
150.6600     463
150.6800     454
150.7000     453
150.7200     487
150.7400     542
150.7600     634
150.7800     714
150.8000     666
150.8200     580
150.8400     569
150.8600     583
150.8800     579
150.9000     557
150.9200     490
150.9400     425
150.9600     468
150.9800     541
151.0000     549
151.0200     534
151.0400     534
151.0600     549
151.0800     608
151.1000     671
151.1200     674
151.1400     653
151.1600     640
151.1800     632
151.2000     633
151.2200     630
151.2400     595
151.2600     565
151.2800     622
151.3000     710
151.3200     781
151.3400     833
151.3600     822
151.3800     790
151.4000     781
151.4200     783
151.4400     792
151.4600     799
151.4800     782
151.5000     762
151.5200     771
151.5400     780
151.5600     734
151.5800     689
151.6000     760
151.6200     863
151.6400     888
151.6600     874
151.6800     818
151.7000     766
151.7200     814
151.7400     890
151.7600     904
151.7800     891
151.8000     860
151.8200     832
151.8400     854
151.8600     887
151.8800     877
151.9000     856
151.9200     875
151.9400     899
151.9600     873
151.9800     842
152.0000     884
152.0200     953
152.0400    1005
152.0600    1036
152.0800     992
152.1000     933
152.1200     944
152.1400     977
152.1600     972
152.1800     960
152.2000     989
152.2200    1029
152.2400    1038
152.2600    1042
152.2800    1086
152.3000    1142
152.3200    1178
152.3400    1200
152.3600    1197
152.3800    1185
152.4000    1181
152.4200    1199
152.4400    1307
152.4600    1424
152.4800    1408
152.5000    1343
152.5200    1306
152.5400    1300
152.5600    1389
152.5800    1487
152.6000    1432
152.6200    1343
152.6400    1390
152.6600    1483
152.6800    1530
152.7000    1571
152.7200    1680
152.7400    1777
152.7600    1679
152.7800    1535
152.8000    1553
152.8200    1639
152.8400    1747
152.8600    1846
152.8800    1861
152.9000    1840
152.9200    1803
152.9400    1771
152.9600    1800
152.9800    1854
153.0000    1905
153.0200    1943
153.0400    1923
153.0600    1886
153.0800    1889
153.1000    1910
153.1200    1944
153.1400    1977
153.1600    1972
153.1800    1971
153.2000    2065
153.2200    2179
153.2400    2208
153.2600    2183
153.2800    2066
153.3000    1945
153.3200    1988
153.3400    2104
153.3600    2260
153.3800    2407
153.4000    2432
153.4200    2407
153.4400    2377
153.4600    2378
153.4800    2546
153.5000    2737
153.5200    2716
153.5400    2619
153.5600    2566
153.5800    2532
153.6000    2508
153.6200    2497
153.6400    2531
153.6600    2581
153.6800    2626
153.7000    2656
153.7200    2628
153.7400    2588
153.7600    2611
153.7800    2653
153.8000    2667
153.8200    2673
153.8400    2701
153.8600    2730
153.8800    2725
153.9000    2712
153.9200    2724
153.9400    2726
153.9600    2623
153.9800    2502
154.0000    2493
154.0200    2517
154.0400    2482
154.0600    2447
154.0800    2524
154.1000    2636
154.1200    2696
154.1400    2747
154.1600    2853
154.1800    2951
154.2000    2899
154.2200    2806
154.2400    2810
154.2600    2834
154.2800    2766
154.3000    2661
154.3200    2553
154.3400    2467
154.3600    2504
154.3800    2578
154.4000    2592
154.4200    2573
154.4400    2506
154.4600    2438
154.4800    2460
154.5000    2533
154.5200    2681
154.5400    2806
154.5600    2669
154.5800    2464
154.6000    2443
154.6200    2456
154.6400    2275
154.6600    2086
154.6800    2242
154.7000    2491
154.7200    2512
154.7400    2433
154.7600    2311
154.7800    2199
154.8000    2228
154.8200    2303
154.8400    2322
154.8600    2323
154.8800    2350
154.9000    2380
154.9200    2367
154.9400    2333
154.9600    2279
154.9800    2219
155.0000    2171
155.0200    2125
155.0400    2069
155.0600    2008
155.0800    1947
155.1000    1899
155.1200    1919
155.1400    1976
155.1600    2078
155.1800    2153
155.2000    2001
155.2200    1794
155.2400    1762
155.2600    1793
155.2800    1788
155.3000    1776
155.3200    1805
155.3400    1840
155.3600    1817
155.3800    1765
155.4000    1681
155.4200    1603
155.4400    1615
155.4600    1668
155.4800    1744
155.5000    1805
155.5200    1736
155.5400    1616
155.5600    1493
155.5800    1392
155.6000    1411
155.6200    1468
155.6400    1478
155.6600    1472
155.6800    1478
155.7000    1472
155.7200    1384
155.7400    1288
155.7600    1314
155.7800    1379
155.8000    1401
155.8200    1411
155.8400    1451
155.8600    1475
155.8800    1362
155.9000    1219
155.9200    1198
155.9400    1230
155.9600    1283
155.9800    1346
156.0000    1414
156.0200    1454
156.0400    1339
156.0600    1201
156.0800    1251
156.1000    1362
156.1200    1393
156.1400    1384
156.1600    1330
156.1800    1256
156.2000    1169
156.2200    1099
156.2400    1139
156.2600    1200
156.2800    1151
156.3000    1061
156.3200     989
156.3400     939
156.3600     961
156.3800    1015
156.4000    1089
156.4200    1151
156.4400    1116
156.4600    1060
156.4800    1091
156.5000    1135
156.5200    1072
156.5400     978
156.5600     943
156.5800     917
156.6000     822
156.6200     727
156.6400     766
156.6600     859
156.6800     960
156.7000    1033
156.7200     948
156.7400     821
156.7600     802
156.7800     810
156.8000     735
156.8200     643
156.8400     634
156.8600     663
156.8800     719
156.9000     788
156.9200     872
156.9400     930
156.9600     830
156.9800     691
157.0000     682
157.0200     718
157.0400     726
157.0600     728
157.0800     765
157.1000     804
157.1200     788
157.1400     746
157.1600     687
157.1800     627
157.2000     594
157.2200     584
157.2400     637
157.2600     705
157.2800     722
157.3000     727
157.3200     778
157.3400     829
157.3600     782
157.3800     706
157.4000     678
157.4200     657
157.4400     571
157.4600     474
157.4800     449
157.5000     464
157.5200     535
157.5400     620
157.5600     660
157.5800     672
157.6000     633
157.6200     586
157.6400     605
157.6600     655
157.6800     722
157.7000     781
157.7200     767
157.7400     719
157.7600     654
157.7800     604
157.8000     662
157.8200     743
157.8400     719
157.8600     660
157.8800     631
157.9000     613
157.9200     587
157.9400     560
157.9600     548
157.9800     559
158.0000     655
158.0200     757
158.0400     719
158.0600     626
158.0800     536
158.1000     463
158.1200     467
158.1400     502
158.1600     544
158.1800     587
158.2000     625
158.2200     647
158.2400     602
158.2600     532
158.2800     470
158.3000     427
158.3200     456
158.3400     509
158.3600     535
158.3800     544
158.4000     515
158.4200     478
158.4400     477
158.4600     497
158.4800     544
158.5000     584
158.5200     532
158.5400     457
158.5600     445
158.5800     451
158.6000     417
158.6200     378
158.6400     394
158.6600     429
158.6800     446
158.7000     458
158.7200     483
158.7400     499
158.7600     445
158.7800     382
158.8000     413
158.8200     468
158.8400     461
158.8600     436
158.8800     446
158.9000     461
158.9200     428
158.9400     389
158.9600     420
158.9800     466
159.0000     454
159.0200     418
159.0400     385
159.0600     360
159.0800     372
159.1000     401
159.1200     443
159.1400     475
159.1600     429
159.1800     373
159.2000     425
159.2200     508
159.2400     528
159.2600     520
159.2800     505
159.3000     478
159.3200     405
159.3400     336
159.3600     387
159.3800     470
159.4000     481
159.4200     464
159.4400     449
159.4600     431
159.4800     391
159.5000     345
159.5200     306
159.5400     289
159.5600     367
159.5800     469
159.6000     501
159.6200     496
159.6400     446
159.6600     382
159.6800     338
159.7000     320
159.7200     395
159.7400     481
159.7600     439
159.7800     359
159.8000     351
159.8200     368
159.8400     371
159.8600     369
159.8800     362
159.9000     352
159.9200     329
159.9400     312
159.9600     351
159.9800     403
160.0000     402
160.0200     387
160.0400     410
160.0600     435
160.0800     394
160.1000     337
160.1200     340
160.1400     359
160.1600     345
160.1800     330
160.2000     385
160.2200     442
160.2400     376
160.2600     279
160.2800     278
160.3000     320
160.3200     379
160.3400     429
160.3600     401
160.3800     352
160.4000     363
160.4200     392
160.4400     398
160.4600     396
160.4800     409
160.5000     425
160.5200     429
160.5400     423
160.5600     385
160.5800     341
160.6000     326
160.6200     317
160.6400     286
160.6600     252
160.6800     245
160.7000     249
160.7200     253
160.7400     256
160.7600     254
160.7800     258
160.8000     303
160.8200     360
160.8400     389
160.8600     391
160.8800     313
160.9000     226
160.9200     254
160.9400     313
160.9600     300
160.9800     266
161.0000     271
161.0200     295
161.0400     344
161.0600     384
161.0800     334
161.1000     262
161.1200     260
161.1400     279
161.1600     266
161.1800     256
161.2000     326
161.2200     400
161.2400     329
161.2600     221
161.2800     215
161.3000     251
161.3200     295
161.3400     329
161.3600     291
161.3800     235
161.4000     226
161.4200     240
161.4400     277
161.4600     318
161.4800     333
161.5000     330
161.5200     293
161.5400     251
161.5600     248
161.5800     266
161.6000     315
161.6200     366
161.6400     359
161.6600     328
161.6800     294
161.7000     256
161.7200     209
161.7400     174
161.7600     213
161.7800     266
161.8000     245
161.8200     205
161.8400     210
161.8600     234
161.8800     258
161.9000     285
161.9200     324
161.9400     355
161.9600     322
161.9800     274