File: XRD_Tool/XRD_Tool/bin/Debug/LDA_sample_name_56789_Psi-0_20180603-120444.txt
137.2000     234
137.2400     259
137.2800     247
137.3200     236
137.3600     244
137.4000     256
137.4400     225
137.4800     250
137.5200     270
137.5600     256
137.6000     263
137.6400     251
137.6800     270
137.7200     255
137.7600     260
137.8000     242
137.8400     250
137.8800     266
137.9200     267
137.9600     258
138.0000     255
138.0400     275
138.0800     286
138.1200     271
138.1600     244
138.2000     252
138.2400     235
138.2800     251
138.3200     234
138.3600     277
138.4000     252
138.4400     250
138.4800     294
138.5200     261
138.5600     262
138.6000     242
138.6400     251
138.6800     249
138.7200     258
138.7600     277
138.8000     251
138.8400     240
138.8800     270
138.9200     238
138.9600     265
139.0000     266
139.0400     252
139.0800     265
139.1200     236
139.1600     248
139.2000     265
139.2400     282
139.2800     236
139.3200     245
139.3600     263
139.4000     266
139.4400     284
139.4800     264
139.5200     258
139.5600     258
139.6000     281
139.6400     256
139.6800     254
139.7200     278
139.7600     281
139.8000     260
139.8400     245
139.8800     262
139.9200     251
139.9600     264
140.0000     230
140.0400     261
140.0800     253
140.1200     243
140.1600     286
140.2000     240
140.2400     254
140.2800     259
140.3200     255
140.3600     277
140.4000     257
140.4400     237
140.4800     249
140.5200     262
140.5600     263
140.6000     257
140.6400     250
140.6800     277
140.7200     253
140.7600     241
140.8000     280
140.8400     246
140.8800     247
140.9200     258
140.9600     275
141.0000     265
141.0400     270
141.0800     282
141.1200     231
141.1600     242
141.2000     250
141.2400     268
141.2800     250
141.3200     257
141.3600     250
141.4000     274
141.4400     237
141.4800     306
141.5200     253
141.5600     289
141.6000     246
141.6400     246
141.6800     237
141.7200     234
141.7600     254
141.8000     274
141.8400     236
141.8800     283
141.9200     269
141.9600     241
142.0000     286
142.0400     258
142.0800     266
142.1200     256
142.1600     252
142.2000     266
142.2400     268
142.2800     298
142.3200     271
142.3600     233
142.4000     299
142.4400     228
142.4800     237
142.5200     287
142.5600     269
142.6000     290
142.6400     224
142.6800     304
142.7200     249
142.7600     255
142.8000     303
142.8400     283
142.8800     273
142.9200     311
142.9600     273
143.0000     265
143.0400     262
143.0800     298
143.1200     270
143.1600     274
143.2000     300
143.2400     257
143.2800     276
143.3200     268
143.3600     258
143.4000     283
143.4400     263
143.4800     283
143.5200     279
143.5600     254
143.6000     278
143.6400     254
143.6800     279
143.7200     262
143.7600     297
143.8000     275
143.8400     264
143.8800     280
143.9200     252
143.9600     265
144.0000     264
144.0400     290
144.0800     275
144.1200     285
144.1600     265
144.2000     280
144.2400     276
144.2800     246
144.3200     300
144.3600     265
144.4000     266
144.4400     275
144.4800     273
144.5200     251
144.5600     311
144.6000     282
144.6400     252
144.6800     266
144.7200     248
144.7600     262
144.8000     256
144.8400     263
144.8800     292
144.9200     289
144.9600     266
145.0000     301
145.0400     279
145.0800     285
145.1200     269
145.1600     279
145.2000     254
145.2400     282
145.2800     262
145.3200     271
145.3600     260
145.4000     269
145.4400     296
145.4800     273
145.5200     276
145.5600     297
145.6000     227
145.6400     261
145.6800     291
145.7200     293
145.7600     281
145.8000     256
145.8400     291
145.8800     269
145.9200     278
145.9600     264
146.0000     288
146.0400     273
146.0800     285
146.1200     255
146.1600     257
146.2000     283
146.2400     275
146.2800     252
146.3200     267
146.3600     267
146.4000     288
146.4400     263
146.4800     253
146.5200     262
146.5600     272
146.6000     261
146.6400     278
146.6800     271
146.7200     276
146.7600     251
146.8000     257
146.8400     290
146.8800     271
146.9200     256
146.9600     254
147.0000     287
147.0400     268
147.0800     291
147.1200     244
147.1600     272
147.2000     262
147.2400     289
147.2800     268
147.3200     284
147.3600     286
147.4000     283
147.4400     285
147.4800     292
147.5200     268
147.5600     301
147.6000     293
147.6400     261
147.6800     282
147.7200     298
147.7600     306
147.8000     297
147.8400     273
147.8800     305
147.9200     296
147.9600     277
148.0000     302
148.0400     292
148.0800     288
148.1200     294
148.1600     299
148.2000     299
148.2400     323
148.2800     277
148.3200     277
148.3600     297
148.4000     286
148.4400     278
148.4800     302
148.5200     287
148.5600     289
148.6000     310
148.6400     316
148.6800     284
148.7200     282
148.7600     283
148.8000     268
148.8400     285
148.8800     302
148.9200     294
148.9600     278
149.0000     281
149.0400     268
149.0800     295
149.1200     341
149.1600     279
149.2000     300
149.2400     310
149.2800     325
149.3200     293
149.3600     295
149.4000     267
149.4400     274
149.4800     281
149.5200     279
149.5600     286
149.6000     309
149.6400     296
149.6800     278
149.7200     325
149.7600     279
149.8000     296
149.8400     259
149.8800     322
149.9200     297
149.9600     310
150.0000     340
150.0400     324
150.0800     320
150.1200     310
150.1600     310
150.2000     314
150.2400     280
150.2800     297
150.3200     288
150.3600     331
150.4000     279
150.4400     290
150.4800     334
150.5200     316
150.5600     335
150.6000     293
150.6400     346
150.6800     302
150.7200     320
150.7600     294
150.8000     309
150.8400     338
150.8800     348
150.9200     336
150.9600     333
151.0000     318
151.0400     330
151.0800     321
151.1200     317
151.1600     305
151.2000     340
151.2400     318
151.2800     329
151.3200     334
151.3600     342
151.4000     349
151.4400     358
151.4800     392
151.5200     328
151.5600     384
151.6000     355
151.6400     358
151.6800     403
151.7200     363
151.7600     381
151.8000     377
151.8400     378
151.8800     382
151.9200     376
151.9600     378
152.0000     387
152.0400     412
152.0800     383
152.1200     374
152.1600     412
152.2000     394
152.2400     378
152.2800     441
152.3200     410
152.3600     410
152.4000     443
152.4400     405
152.4800     397
152.5200     432
152.5600     437
152.6000     462
152.6400     428
152.6800     535
152.7200     455
152.7600     486
152.8000     462
152.8400     505
152.8800     513
152.9200     519
152.9600     521
153.0000     490
153.0400     500
153.0800     500
153.1200     531
153.1600     531
153.2000     583
153.2400     558
153.2800     587
153.3200     585
153.3600     552
153.4000     599
153.4400     649
153.4800     625
153.5200     598
153.5600     625
153.6000     700
153.6400     728
153.6800     709
153.7200     675
153.7600     669
153.8000     695
153.8400     670
153.8800     709
153.9200     702
153.9600     685
154.0000     703
154.0400     701
154.0800     656
154.1200     807
154.1600     779
154.2000     731
154.2400     773
154.2800     749
154.3200     780
154.3600     786
154.4000     731
154.4400     770
154.4800     755
154.5200     802
154.5600     762
154.6000     767
154.6400     804
154.6800     771
154.7200     750
154.7600     699
154.8000     733
154.8400     707
154.8800     777
154.9200     719
154.9600     802
155.0000     790
155.0400     750
155.0800     798
155.1200     711
155.1600     730
155.2000     731
155.2400     696
155.2800     714
155.3200     679
155.3600     679
155.4000     714
155.4400     592
155.4800     640
155.5200     702
155.5600     676
155.6000     635
155.6400     596
155.6800     646
155.7200     634
155.7600     586
155.8000     620
155.8400     572
155.8800     625
155.9200     572
155.9600     616
156.0000     569
156.0400     570
156.0800     497
156.1200     574
156.1600     550
156.2000     516
156.2400     543
156.2800     500
156.3200     526
156.3600     492
156.4000     507
156.4400     450
156.4800     512
156.5200     486
156.5600     479
156.6000     516
156.6400     472
156.6800     485
156.7200     465
156.7600     410
156.8000     414
156.8400     440
156.8800     459
156.9200     416
156.9600     425
157.0000     445
157.0400     437
157.0800     434
157.1200     417
157.1600     426
157.2000     439
157.2400     421
157.2800     396
157.3200     392
157.3600     401
157.4000     385
157.4400     333
157.4800     381
157.5200     391
157.5600     370
157.6000     364
157.6400     331
157.6800     357
157.7200     377
157.7600     383
157.8000     385
157.8400     385
157.8800     368
157.9200     360
157.9600     372
158.0000     377
158.0400     355
158.0800     349
158.1200     396
158.1600     339
158.2000     315
158.2400     313
158.2800     311
158.3200     346
158.3600     352
158.4000     348
158.4400     337
158.4800     325
158.5200     333
158.5600     359
158.6000     338
158.6400     374
158.6800     362
158.7200     333
158.7600     306
158.8000     325
158.8400     354
158.8800     320
158.9200     332
158.9600     327
159.0000     323
159.0400     337
159.0800     305
159.1200     297
159.1600     321
159.2000     305
159.2400     310
159.2800     305
159.3200     289
159.3600     303
159.4000     335
159.4400     281
159.4800     320
159.5200     289
159.5600     280
159.6000     311
159.6400     289
159.6800     333
159.7200     319
159.7600     286
159.8000     271
159.8400     331
159.8800     315
159.9200     302
159.9600     276
160.0000     284
160.0400     320
160.0800     306
160.1200     318
160.1600     293
160.2000     285
160.2400     289
160.2800     290
160.3200     291
160.3600     277
160.4000     294
160.4400     292
160.4800     253
160.5200     293
160.5600     304
160.6000     279
160.6400     253
160.6800     264
160.7200     279
160.7600     291
160.8000     278
160.8400     280
160.8800     295
160.9200     285
160.9600     282
161.0000     257
161.0400     261
161.0800     299
161.1200     280
161.1600     274
161.2000     281
161.2400     286
161.2800     301
161.3200     261
161.3600     304
161.4000     303
161.4400     245
161.4800     299
161.5200     312
161.5600     303
161.6000     297
161.6400     241
161.6800     237
161.7200     250
161.7600     275
161.8000     291
161.8400     234
161.8800     276
161.9200     299
161.9600     275
162.0000     295
162.0400     255
162.0800     293
162.1200     264
162.1600     283
162.2000     271
162.2400     271
162.2800     263
162.3200     262
162.3600     228
162.4000     255
162.4400     266
162.4800     262
162.5200     244
162.5600     264
162.6000     296
162.6400     268
162.6800     288
162.7200     282
162.7600     231