File: XRD_Tool/XRD_Tool/bin/Debug/LDA_sample_name_56789_Psi-0_20180623-125556.txt
138.0000     260
138.0200     298
138.0400     236
138.0600     155
138.0800     179
138.1000     238
138.1200     265
138.1400     284
138.1600     325
138.1800     362
138.2000     337
138.2200     290
138.2400     260
138.2600     233
138.2800     191
138.3000     159
138.3200     210
138.3400     284
138.3600     307
138.3800     305
138.4000     288
138.4200     268
138.4400     271
138.4600     276
138.4800     243
138.5000     203
138.5200     205
138.5400     221
138.5600     232
138.5800     239
138.6000     239
138.6200     238
138.6400     240
138.6600     246
138.6800     262
138.7000     274
138.7200     241
138.7400     199
138.7600     195
138.7800     207
138.8000     219
138.8200     238
138.8400     292
138.8600     337
138.8800     266
138.9000     173
138.9200     210
138.9400     276
138.9600     232
138.9800     159
139.0000     161
139.0200     189
139.0400     200
139.0600     205
139.0800     215
139.1000     228
139.1200     246
139.1400     261
139.1600     248
139.1800     237
139.2000     291
139.2200     343
139.2400     258
139.2600     146
139.2800     173
139.3000     246
139.3200     277
139.3400     288
139.3600     284
139.3800     276
139.4000     276
139.4200     272
139.4400     225
139.4600     173
139.4800     179
139.5000     209
139.5200     237
139.5400     254
139.5600     215
139.5800     166
139.6000     187
139.6200     230
139.6400     246
139.6600     260
139.6800     312
139.7000     360
139.7200     308
139.7400     224
139.7600     177
139.7800     159
139.8000     214
139.8200     290
139.8400     326
139.8600     338
139.8800     309
139.9000     264
139.9200     227
139.9400     194
139.9600     166
139.9800     144
140.0000     144
140.0200     158
140.0400     200
140.0600     250
140.0800     282
140.1000     294
140.1200     249
140.1400     198
140.1600     231
140.1800     286
140.2000     289
140.2200     267
140.2400     223
140.2600     174
140.2800     139
140.3000     122
140.3200     171
140.3400     233
140.3600     224
140.3800     193
140.4000     200
140.4200     222
140.4400     244
140.4600     253
140.4800     199
140.5000     139
140.5200     179
140.5400     246
140.5600     251
140.5800     237
140.6000     250
140.6200     264
140.6400     228
140.6600     187
140.6800     223
140.7000     277
140.7200     276
140.7400     254
140.7600     245
140.7800     246
140.8000     269
140.8200     296
140.8400     296
140.8600     282
140.8800     246
140.9000     208
140.9200     197
140.9400     203
140.9600     241
140.9800     278
141.0000     251
141.0200     204
141.0400     182
141.0600     170
141.0800     153
141.1000     142
141.1200     163
141.1400     193
141.1600     206
141.1800     215
141.2000     239
141.2200     271
141.2400     310
141.2600     338
141.2800     297
141.3000     239
141.3200     231
141.3400     243
141.3600     252
141.3800     256
141.4000     240
141.4200     217
141.4400     199
141.4600     198
141.4800     272
141.5000     352
141.5200     314
141.5400     239
141.5600     219
141.5800     227
141.6000     266
141.6200     308
141.6400     295
141.6600     256
141.6800     189
141.7000     133
141.7200     187
141.7400     264
141.7600     236
141.7800     180
141.8000     197
141.8200     240
141.8400     265
141.8600     287
141.8800     334
141.9000     376
141.9200     350
141.9400     301
141.9600     280
141.9800     265
142.0000     227
142.0200     186
142.0400     178
142.0600     180
142.0800     164
142.1000     152
142.1200     198
142.1400     260
142.1600     279
142.1800     277
142.2000     255
142.2200     236
142.2400     273
142.2600     327
142.2800     350
142.3000     354
142.3200     333
142.3400     305
142.3600     295
142.3800     296
142.4000     309
142.4200     319
142.4400     294
142.4600     260
142.4800     259
142.5000     263
142.5200     224
142.5400     190
142.5600     268
142.5800     362
142.6000     316
142.6200     227
142.6400     204
142.6600     215
142.6800     261
142.7000     307
142.7200     283
142.7400     239
142.7600     232
142.7800     239
142.8000     243
142.8200     245
142.8400     247
142.8600     259
142.8800     324
142.9000     395
142.9200     391
142.9400     353
142.9600     293
142.9800     247
143.0000     308
143.0200     389
143.0400     355
143.0600     285
143.0800     268
143.1000     278
143.1200     318
143.1400     358
143.1600     335
143.1800     291
143.2000     267
143.2200     253
143.2400     251
143.2600     251
143.2800     242
143.3000     242
143.3200     297
143.3400     360
143.3600     350
143.3800     312
143.4000     284
143.4200     265
143.4400     274
143.4600     289
143.4800     276
143.5000     250
143.5200     216
143.5400     188
143.5600     215
143.5800     262
143.6000     306
143.6200     336
143.6400     309
143.6600     269
143.6800     281
143.7000     302
143.7200     270
143.7400     232
143.7600     277
143.7800     334
143.8000     284
143.8200     217
143.8400     270
143.8600     355
143.8800     357
143.9000     327
143.9200     305
143.9400     292
143.9600     301
143.9800     314
144.0000     307
144.0200     298
144.0400     326
144.0600     362
144.0800     369
144.1000     363
144.1200     346
144.1400     323
144.1600     298
144.1800     280
144.2000     304
144.2200     335
144.2400     324
144.2600     302
144.2800     309
144.3000     318
144.3200     282
144.3400     239
144.3600     251
144.3800     279
144.4000     282
144.4200     270
144.4400     240
144.4600     205
144.4800     188
144.5000     187
144.5200     231
144.5400     291
144.5600     343
144.5800     381
144.6000     371
144.6200     346
144.6400     347
144.6600     355
144.6800     342
144.7000     322
144.7200     315
144.7400     315
144.7600     323
144.7800     328
144.8000     297
144.8200     267
144.8400     322
144.8600     397
144.8800     409
144.9000     389
144.9200     340
144.9400     295
144.9600     324
144.9800     369
145.0000     352
145.0200     318
145.0400     326
145.0600     340
145.0800     306
145.1000     261
145.1200     262
145.1400     279
145.1600     276
145.1800     274
145.2000     309
145.2200     341
145.2400     286
145.2600     214
145.2800     232
145.3000     280
145.3200     298
145.3400     299
145.3600     272
145.3800     239
145.4000     234
145.4200     239
145.4400     237
145.4600     238
145.4800     259
145.5000     285
145.5200     288
145.5400     293
145.5600     353
145.5800     417
145.6000     396
145.6200     344
145.6400     314
145.6600     294
145.6800     287
145.7000     287
145.7200     297
145.7400     317
145.7600     369
145.7800     416
145.8000     376
145.8200     316
145.8400     323
145.8600     352
145.8800     357
145.9000     340
145.9200     258
145.9400     176
145.9600     221
145.9800     305
146.0000     332
146.0200     335
146.0400     328
146.0600     316
146.0800     292
146.1000     273
146.1200     296
146.1400     326
146.1600     309
146.1800     277
146.2000     262
146.2200     266
146.2400     333
146.2600     405
146.2800     372
146.3000     307
146.3200     289
146.3400     280
146.3600     229
146.3800     179
146.4000     214
146.4200     277
146.4400     307
146.4600     310
146.4800     248
146.5000     186
146.5200     256
146.5400     359
146.5600     370
146.5800     355
146.6000     392
146.6200     423
146.6400     324
146.6600     193
146.6800     165
146.7000     191
146.7200     275
146.7400     373
146.7600     421
146.7800     430
146.8000     344
146.8200     248
146.8400     287
146.8600     369
146.8800     391
146.9000     390
146.9200     392
146.9400     390
146.9600     357
146.9800     314
147.0000     286
147.0200     264
147.0400     247
147.0600     238
147.0800     262
147.1000     296
147.1200     312
147.1400     324
147.1600     354
147.1800     379
147.2000     339
147.2200     282
147.2400     268
147.2600     263
147.2800     213
147.3000     163
147.3200     198
147.3400     274
147.3600     377
147.3800     479
147.4000     526
147.4200     532
147.4400     446
147.4600     336
147.4800     286
147.5000     270
147.5200     304
147.5400     351
147.5600     363
147.5800     354
147.6000     308
147.6200     263
147.6400     292
147.6600     348
147.6800     397
147.7000     443
147.7200     486
147.7400     520
147.7600     515
147.7800     489
147.8000     428
147.8200     364
147.8400     348
147.8600     351
147.8800     349
147.9000     352
147.9200     385
147.9400     420
147.9600     398
147.9800     360
148.0000     347
148.0200     345
148.0400     343
148.0600     342
148.0800     346
148.1000     355
148.1200     381
148.1400     405
148.1600     391
148.1800     365
148.2000     362
148.2200     362
148.2400     330
148.2600     291
148.2800     276
148.3000     279
148.3200     332
148.3400     388
148.3600     362
148.3800     318
148.4000     341
148.4200     381
148.4400     372
148.4600     358
148.4800     411
148.5000     464
148.5200     385
148.5400     279
148.5600     302
148.5800     358
148.6000     327
148.6200     286
148.6400     370
148.6600     477
148.6800     449
148.7000     386
148.7200     416
148.7400     464
148.7600     411
148.7800     331
148.8000     324
148.8200     347
148.8400     375
148.8600     398
148.8800     384
148.9000     362
148.9200     367
148.9400     389
148.9600     444
148.9800     497
149.0000     472
149.0200     423
149.0400     411
149.0600     410
149.0800     395
149.1000     373
149.1200     341
149.1400     321
149.1600     381
149.1800     462
149.2000     487
149.2200     476
149.2400     405
149.2600     330
149.2800     360
149.3000     421
149.3200     429
149.3400     413
149.3600     390
149.3800     373
149.4000     403
149.4200     434
149.4400     382
149.4600     313
149.4800     334
149.5000     387
149.5200     423
149.5400     444
149.5600     418
149.5800     391
149.6000     449
149.6200     522
149.6400     497
149.6600     436
149.6800     393
149.7000     359
149.7200     335
149.7400     320
149.7600     327
149.7800     348
149.8000     397
149.8200     449
149.8400     458
149.8600     462
149.8800     524
149.9000     598
149.9200     614
149.9400     596
149.9600     531
149.9800     467
150.0000     498
150.0200     551
150.0400     521
150.0600     464
150.0800     440
150.1000     425
150.1200     383
150.1400     345
150.1600     376
150.1800     424
150.2000     425
150.2200     413
150.2400     431
150.2600     465
150.2800     516
150.3000     566
150.3200     576
150.3400     565
150.3600     530
150.3800     497
150.4000     519
150.4200     555
150.4400     548
150.4600     524
150.4800     498
150.5000     477
150.5200     481
150.5400     496
150.5600     516
150.5800     538
150.6000     562
150.6200     583
150.6400     592
150.6600     599
150.6800     620
150.7000     643
150.7200     652
150.7400     648
150.7600     601
150.7800     547
150.8000     543
150.8200     562
150.8400     596
150.8600     625
150.8800     602
150.9000     565
150.9200     560
150.9400     567
150.9600     572
150.9800     577
151.0000     584
151.0200     597
151.0400     637
151.0600     678
151.0800     677
151.1000     654
151.1200     606
151.1400     569
151.1600     637
151.1800     722
151.2000     679
151.2200     600
151.2400     601
151.2600     625
151.2800     612
151.3000     597
151.3200     642
151.3400     711
151.3600     773
151.3800     818
151.4000     787
151.4200     719
151.4400     621
151.4600     533
151.4800     558
151.5000     630
151.5200     709
151.5400     770
151.5600     727
151.5800     661
151.6000     682
151.6200     731
151.6400     747
151.6600     746
151.6800     735
151.7000     726
151.7200     755
151.7400     798
151.7600     831
151.7800     856
151.8000     853
151.8200     838
151.8400     823
151.8600     811
151.8800     817
151.9000     833
151.9200     861
151.9400     894
151.9600     930
151.9800     966
152.0000     990
152.0200    1006
152.0400     997
152.0600     977
152.0800     945
152.1000     915
152.1200     910
152.1400     916
152.1600     919
152.1800     922
152.2000     930
152.2200     948
152.2400    1011
152.2600    1069
152.2800    1015
152.3000     938
152.3200     966
152.3400    1036
152.3600    1106
152.3800    1173
152.4000    1222
152.4200    1258
152.4400    1265
152.4600    1254
152.4800    1205
152.5000    1183
152.5200    1374
152.5400    1604
152.5600    1604
152.5800    1521
152.6000    1482
152.6200    1468
152.6400    1494
152.6600    1524
152.6800    1494
152.7000    1458
152.7200    1517
152.7400    1605
152.7600    1655
152.7800    1687
152.8000    1709
152.8200    1726
152.8400    1739
152.8600    1755
152.8800    1791
152.9000    1845
152.9200    1946
152.9400    2022
152.9600    1881
152.9800    1704
153.0000    1779
153.0200    1907
153.0400    1798
153.0600    1638
153.0800    1697
153.1000    1832
153.1200    1917
153.1400    1971
153.1600    1975
153.1800    1985
153.2000    2125
153.2200    2280
153.2400    2248
153.2600    2142
153.2800    2036
153.3000    1941
153.3200    1899
153.3400    1910
153.3600    2075
153.3800    2281
153.4000    2390
153.4200    2441
153.4400    2394
153.4600    2325
153.4800    2344
153.5000    2395
153.5200    2429
153.5400    2469
153.5600    2568
153.5800    2659
153.6000    2600
153.6200    2490
153.6400    2428
153.6600    2406
153.6800    2486
153.7000    2583
153.7200    2567
153.7400    2530
153.7600    2619
153.7800    2736
153.8000    2733
153.8200    2687
153.8400    2659
153.8600    2638
153.8800    2607
153.9000    2603
153.9200    2746
153.9400    2884
153.9600    2705
153.9800    2462
154.0000    2536
154.0200    2698
154.0400    2672
154.0600    2579
154.0800    2534
154.1000    2514
154.1200    2522
154.1400    2569
154.1600    2746
154.1800    2927
154.2000    2863
154.2200    2709
154.2400    2593
154.2600    2506
154.2800    2483
154.3000    2496
154.3200    2569
154.3400    2643
154.3600    2605
154.3800    2543
154.4000    2583
154.4200    2635
154.4400    2545
154.4600    2434
154.4800    2498
154.5000    2604
154.5200    2572
154.5400    2507
154.5600    2559
154.5800    2611
154.6000    2434
154.6200    2221
154.6400    2282
154.6600    2416
154.6800    2373
154.7000    2279
154.7200    2283
154.7400    2322
154.7600    2336
154.7800    2350
154.8000    2414
154.8200    2475
154.8400    2420
154.8600    2319
154.8800    2228
154.9000    2167
154.9200    2241
154.9400    2334
154.9600    2254
154.9800    2132
155.0000    2153
155.0200    2224
155.0400    2260
155.0600    2263
155.0800    2168
155.1000    2042
155.1200    1957
155.1400    1915
155.1600    1998
155.1800    2106
155.2000    2082
155.2200    2002
155.2400    1899
155.2600    1811
155.2800    1841
155.3000    1895
155.3200    1829
155.3400    1748
155.3600    1834
155.3800    1938
155.4000    1802
155.4200    1612
155.4400    1635
155.4600    1726
155.4800    1727
155.5000    1688
155.5200    1626
155.5400    1565
155.5600    1557
155.5800    1566
155.6000    1550
155.6200    1526
155.6400    1510
155.6600    1499
155.6800    1490
155.7000    1483
155.7200    1484
155.7400    1481
155.7600    1443
155.7800    1385
155.8000    1296
155.8200    1219
155.8400    1272
155.8600    1355
155.8800    1333
155.9000    1276
155.9200    1257
155.9400    1255
155.9600    1262
155.9800    1270
156.0000    1268
156.0200    1261
156.0400    1250
156.0600    1234
156.0800    1193
156.1000    1152
156.1200    1156
156.1400    1177
156.1600    1190
156.1800    1188
156.2000    1131
156.2200    1059
156.2400    1029
156.2600    1012
156.2800     985
156.3000     967
156.3200    1019
156.3400    1078
156.3600    1032
156.3800     957
156.4000     945
156.4200     954
156.4400     938
156.4600     922
156.4800     954
156.5000    1000
156.5200    1013
156.5400    1006
156.5600     962
156.5800     911
156.6000     893
156.6200     884
156.6400     845
156.6600     800
156.6800     782
156.7000     780
156.7200     808
156.7400     835
156.7600     797
156.7800     749
156.8000     779
156.8200     829
156.8400     821
156.8600     792
156.8800     776
156.9000     778
156.9200     842
156.9400     907
156.9600     857
156.9800     772
157.0000     740
157.0200     727
157.0400     697
157.0600     668
157.0800     674
157.1000     685
157.1200     650
157.1400     605
157.1600     608
157.1800     628
157.2000     638
157.2200     640
157.2400     622
157.2600     612
157.2800     682
157.3000     771
157.3200     793
157.3400     774
157.3600     677
157.3800     571
157.4000     575
157.4200     613
157.4400     603
157.4600     566
157.4800     499
157.5000     432
157.5200     428
157.5400     458
157.5600     526
157.5800     597
157.6000     602
157.6200     577
157.6400     542
157.6600     517
157.6800     567
157.7000     636
157.7200     650
157.7400     634
157.7600     576
157.7800     513
157.8000     505
157.8200     528
157.8400     596
157.8600     661
157.8800     618
157.9000     539
157.9200     498
157.9400     478
157.9600     488
157.9800     506
158.0000     502
158.0200     496
158.0400     520
158.0600     551
158.0800     554
158.1000     545
158.1200     529
158.1400     516
158.1600     528
158.1800     553
158.2000     595
158.2200     634
158.2400     628
158.2600     604
158.2800     583
158.3000     563
158.3200     538
158.3400     523
158.3600     563
158.3800     609
158.4000     577
158.4200     520
158.4400     501
158.4600     499
158.4800     502
158.5000     508
158.5200     514
158.5400     507
158.5600     437
158.5800     350
158.6000     308
158.6200     304
158.6400     400
158.6600     511
158.6800     497
158.7000     440
158.7200     416
158.7400     415
158.7600     456
158.7800     508
158.8000     535
158.8200     543
158.8400     511
158.8600     465
158.8800     431
158.9000     407
158.9200     418
158.9400     443
158.9600     471
158.9800     495
159.0000     486
159.0200     471
159.0400     491
159.0600     511
159.0800     462
159.1000     400
159.1200     405
159.1400     436
159.1600     460
159.1800     470
159.2000     422
159.2200     364
159.2400     378
159.2600     412
159.2800     409
159.3000     390
159.3200     368
159.3400     344
159.3600     318
159.3800     305
159.4000     354
159.4200     417
159.4400     426
159.4600     419
159.4800     434
159.5000     450
159.5200     428
159.5400     394
159.5600     383
159.5800     383
159.6000     391
159.6200     410
159.6400     459
159.6600     513
159.6800     529
159.7000     519
159.7200     459
159.7400     388
159.7600     360
159.7800     349
159.8000     333
159.8200     317
159.8400     309
159.8600     310
159.8800     331
159.9000     358
159.9200     372
159.9400     377
159.9600     365
159.9800     357
160.0000     399
160.0200     461
160.0400     523
160.0600     566
160.0800     514
160.1000     434
160.1200     406
160.1400     398
160.1600     392
160.1800     390
160.2000     409
160.2200     428
160.2400     401
160.2600     362
160.2800     363
160.3000     380
160.3200     402
160.3400     423
160.3600     432
160.3800     432
160.4000     411
160.4200     373
160.4400     300
160.4600     228
160.4800     238
160.5000     288
160.5200     381
160.5400     470
160.5600     454
160.5800     393
160.6000     319
160.6200     252
160.6400     252
160.6600     275
160.6800     283
160.7000     286
160.7200     295
160.7400     306
160.7600     312
160.7800     314
160.8000     306
160.8200     298
160.8400     305
160.8600     320
160.8800     337
160.9000     345
160.9200     303
160.9400     251
160.9600     250
160.9800     268
161.0000     276
161.0200     283
161.0400     302
161.0600     315
161.0800     271
161.1000     226
161.1200     286
161.1400     365
161.1600     331
161.1800     260
161.2000     232
161.2200     228
161.2400     251
161.2600     282
161.2800     303
161.3000     317
161.3200     319
161.3400     308
161.3600     252
161.3800     198
161.4000     246
161.4200     326
161.4400     364
161.4600     381
161.4800     370
161.5000     348
161.5200     331
161.5400     306
161.5600     238
161.5800     173
161.6000     213
161.6200     281
161.6400     282
161.6600     267
161.6800     304
161.7000     349
161.7200     332
161.7400     295
161.7600     280
161.7800     278
161.8000     296
161.8200     320
161.8400     339
161.8600     338
161.8800     250
161.9000     154
161.9200     188
161.9400     265
161.9600     297
161.9800     299