File: XRD_Tool/XRD_Tool/bin/Debug/LDA_sample_name_56789_Psi-0_20180623-125505.txt
138.0000     297
138.0200     269
138.0400     281
138.0600     306
138.0800     318
138.1000     323
138.1200     323
138.1400     310
138.1600     245
138.1800     183
138.2000     241
138.2200     324
138.2400     287
138.2600     218
138.2800     226
138.3000     251
138.3200     213
138.3400     162
138.3600     179
138.3800     217
138.4000     227
138.4200     232
138.4400     272
138.4600     323
138.4800     357
138.5000     371
138.5200     312
138.5400     235
138.5600     214
138.5800     223
138.6000     267
138.6200     310
138.6400     278
138.6600     237
138.6800     300
138.7000     386
138.7200     382
138.7400     346
138.7600     330
138.7800     320
138.8000     300
138.8200     277
138.8400     259
138.8600     251
138.8800     288
138.9000     334
138.9200     342
138.9400     321
138.9600     235
138.9800     150
139.0000     205
139.0200     290
139.0400     252
139.0600     182
139.0800     202
139.1000     243
139.1200     214
139.1400     177
139.1600     245
139.1800     334
139.2000     316
139.2200     268
139.2400     277
139.2600     306
139.2800     320
139.3000     324
139.3200     313
139.3400     295
139.3600     275
139.3800     269
139.4000     333
139.4200     400
139.4400     342
139.4600     253
139.4800     261
139.5000     301
139.5200     314
139.5400     317
139.5600     325
139.5800     327
139.6000     286
139.6200     237
139.6400     231
139.6600     245
139.6800     269
139.7000     283
139.7200     229
139.7400     167
139.7600     205
139.7800     268
139.8000     259
139.8200     214
139.8400     134
139.8600      68
139.8800     141
139.9000     251
139.9200     276
139.9400     269
139.9600     277
139.9800     282
140.0000     242
140.0200     193
140.0400     192
140.0600     216
140.0800     267
140.1000     321
140.1200     338
140.1400     333
140.1600     288
140.1800     234
140.2000     212
140.2200     213
140.2400     271
140.2600     336
140.2800     331
140.3000     291
140.3200     219
140.3400     154
140.3600     182
140.3800     245
140.4000     293
140.4200     331
140.4400     349
140.4600     360
140.4800     373
140.5000     376
140.5200     324
140.5400     272
140.5600     333
140.5800     415
140.6000     374
140.6200     289
140.6400     232
140.6600     199
140.6800     230
140.7000     274
140.7200     258
140.7400     226
140.7600     239
140.7800     268
140.8000     295
140.8200     313
140.8400     288
140.8600     249
140.8800     223
140.9000     216
140.9200     272
140.9400     344
140.9600     361
140.9800     350
141.0000     301
141.0200     246
141.0400     236
141.0600     245
141.0800     264
141.1000     278
141.1200     250
141.1400     221
141.1600     265
141.1800     320
141.2000     280
141.2200     222
141.2400     261
141.2600     325
141.2800     321
141.3000     298
141.3200     323
141.3400     361
141.3600     369
141.3800     364
141.4000     354
141.4200     337
141.4400     293
141.4600     247
141.4800     238
141.5000     239
141.5200     215
141.5400     189
141.5600     205
141.5800     236
141.6000     265
141.6200     288
141.6400     283
141.6600     278
141.6800     331
141.7000     393
141.7200     383
141.7400     344
141.7600     295
141.7800     250
141.8000     240
141.8200     242
141.8400     232
141.8600     227
141.8800     267
141.9000     312
141.9200     289
141.9400     248
141.9600     250
141.9800     268
142.0000     274
142.0200     275
142.0400     268
142.0600     255
142.0800     230
142.1000     209
142.1200     228
142.1400     255
142.1600     237
142.1800     207
142.2000     205
142.2200     215
142.2400     222
142.2600     232
142.2800     264
142.3000     300
142.3200     316
142.3400     329
142.3600     372
142.3800     416
142.4000     413
142.4200     393
142.4400     382
142.4600     377
142.4800     388
142.5000     409
142.5200     442
142.5400     469
142.5600     441
142.5800     392
142.6000     348
142.6200     320
142.6400     364
142.6600     425
142.6800     434
142.7000     419
142.7200     389
142.7400     359
142.7600     359
142.7800     373
142.8000     395
142.8200     408
142.8400     353
142.8600     294
142.8800     352
142.9000     439
142.9200     446
142.9400     419
142.9600     389
142.9800     356
143.0000     319
143.0200     285
143.0400     266
143.0600     259
143.0800     277
143.1000     303
143.1200     317
143.1400     320
143.1600     285
143.1800     252
143.2000     306
143.2200     382
143.2400     403
143.2600     403
143.2800     413
143.3000     415
143.3200     359
143.3400     282
143.3600     223
143.3800     188
143.4000     240
143.4200     319
143.4400     366
143.4600     391
143.4800     368
143.5000     334
143.5200     342
143.5400     359
143.5600     346
143.5800     328
143.6000     353
143.6200     388
143.6400     387
143.6600     365
143.6800     318
143.7000     265
143.7200     239
143.7400     230
143.7600     257
143.7800     300
143.8000     343
143.8200     375
143.8400     349
143.8600     305
143.8800     294
143.9000     304
143.9200     353
143.9400     403
143.9600     383
143.9800     344
144.0000     351
144.0200     368
144.0400     339
144.0600     306
144.0800     353
144.1000     414
144.1200     390
144.1400     345
144.1600     365
144.1800     407
144.2000     427
144.2200     436
144.2400     427
144.2600     407
144.2800     368
144.3000     328
144.3200     318
144.3400     321
144.3600     324
144.3800     326
144.4000     315
144.4200     309
144.4400     358
144.4600     423
144.4800     466
144.5000     485
144.5200     426
144.5400     342
144.5600     290
144.5800     263
144.6000     306
144.6200     358
144.6400     322
144.6600     270
144.6800     319
144.7000     399
144.7200     428
144.7400     422
144.7600     347
144.7800     263
144.8000     264
144.8200     295
144.8400     298
144.8600     293
144.8800     303
144.9000     312
144.9200     287
144.9400     265
144.9600     318
144.9800     392
145.0000     414
145.0200     419
145.0400     439
145.0600     451
145.0800     393
145.1000     323
145.1200     330
145.1400     361
145.1600     355
145.1800     345
145.2000     387
145.2200     430
145.2400     380
145.2600     308
145.2800     316
145.3000     351
145.3200     361
145.3400     362
145.3600     368
145.3800     369
145.4000     340
145.4200     297
145.4400     249
145.4600     210
145.4800     229
145.5000     269
145.5200     296
145.5400     313
145.5600     307
145.5800     296
145.6000     313
145.6200     333
145.6400     311
145.6600     287
145.6800     332
145.7000     392
145.7200     393
145.7400     369
145.7600     335
145.7800     302
145.8000     289
145.8200     288
145.8400     302
145.8600     318
145.8800     314
145.9000     305
145.9200     313
145.9400     330
145.9600     362
145.9800     386
146.0000     342
146.0200     279
146.0400     266
146.0600     282
146.0800     350
146.1000     422
146.1200     415
146.1400     387
146.1600     406
146.1800     426
146.2000     358
146.2200     272
146.2400     279
146.2600     325
146.2800     379
146.3000     434
146.3200     469
146.3400     487
146.3600     453
146.3800     406
146.4000     394
146.4200     391
146.4400     360
146.4600     327
146.4800     342
146.5000     365
146.5200     328
146.5400     279
146.5600     285
146.5800     306
146.6000     289
146.6200     264
146.6400     275
146.6600     303
146.6800     340
146.7000     380
146.7200     420
146.7400     445
146.7600     395
146.7800     331
146.8000     352
146.8200     403
146.8400     441
146.8600     458
146.8800     400
146.9000     328
146.9200     336
146.9400     372
146.9600     389
146.9800     391
147.0000     350
147.0200     301
147.0400     299
147.0600     312
147.0800     311
147.1000     309
147.1200     327
147.1400     346
147.1600     329
147.1800     309
147.2000     352
147.2200     406
147.2400     390
147.2600     350
147.2800     332
147.3000     328
147.3200     356
147.3400     388
147.3600     380
147.3800     361
147.4000     370
147.4200     382
147.4400     356
147.4600     320
147.4800     314
147.5000     320
147.5200     329
147.5400     342
147.5600     365
147.5800     381
147.6000     334
147.6200     285
147.6400     352
147.6600     448
147.6800     453
147.7000     422
147.7200     397
147.7400     377
147.7600     366
147.7800     363
147.8000     386
147.8200     413
147.8400     400
147.8600     378
147.8800     388
147.9000     408
147.9200     421
147.9400     425
147.9600     394
147.9800     361
148.0000     383
148.0200     422
148.0400     438
148.0600     443
148.0800     445
148.1000     438
148.1200     401
148.1400     370
148.1600     436
148.1800     518
148.2000     493
148.2200     436
148.2400     434
148.2600     455
148.2800     479
148.3000     497
148.3200     474
148.3400     431
148.3600     373
148.3800     324
148.4000     350
148.4200     403
148.4400     446
148.4600     477
148.4800     471
148.5000     446
148.5200     393
148.5400     341
148.5600     349
148.5800     389
148.6000     469
148.6200     543
148.6400     510
148.6600     449
148.6800     460
148.7000     487
148.7200     450
148.7400     394
148.7600     367
148.7800     357
148.8000     377
148.8200     398
148.8400     369
148.8600     328
148.8800     332
148.9000     362
148.9200     434
148.9400     503
148.9600     480
148.9800     427
149.0000     411
149.0200     413
149.0400     438
149.0600     455
149.0800     387
149.1000     304
149.1200     316
149.1400     357
149.1600     348
149.1800     332
149.2000     374
149.2200     439
149.2400     494
149.2600     528
149.2800     474
149.3000     407
149.3200     457
149.3400     534
149.3600     521
149.3800     472
149.4000     428
149.4200     400
149.4400     444
149.4600     499
149.4800     469
149.5000     413
149.5200     402
149.5400     409
149.5600     423
149.5800     439
149.6000     458
149.6200     469
149.6400     437
149.6600     394
149.6800     389
149.7000     403
149.7200     436
149.7400     473
149.7600     496
149.7800     515
149.8000     538
149.8200     560
149.8400     575
149.8600     580
149.8800     550
149.9000     516
149.9200     534
149.9400     567
149.9600     573
149.9800     564
150.0000     528
150.0200     497
150.0400     541
150.0600     600
150.0800     583
150.1000     544
150.1200     550
150.1400     565
150.1600     536
150.1800     490
150.2000     439
150.2200     408
150.2400     479
150.2600     574
150.2800     585
150.3000     571
150.3200     594
150.3400     613
150.3600     537
150.3800     440
150.4000     426
150.4200     454
150.4400     520
150.4600     589
150.4800     588
150.5000     561
150.5200     537
150.5400     525
150.5600     562
150.5800     608
150.6000     607
150.6200     589
150.6400     578
150.6600     575
150.6800     598
150.7000     629
150.7200     644
150.7400     651
150.7600     654
150.7800     653
150.8000     637
150.8200     615
150.8400     593
150.8600     576
150.8800     579
150.9000     591
150.9200     600
150.9400     603
150.9600     582
150.9800     558
151.0000     564
151.0200     587
151.0400     630
151.0600     670
151.0800     650
151.1000     611
151.1200     599
151.1400     604
151.1600     647
151.1800     693
151.2000     678
151.2200     636
151.2400     589
151.2600     552
151.2800     580
151.3000     636
151.3200     702
151.3400     761
151.3600     767
151.3800     748
151.4000     717
151.4200     691
151.4400     712
151.4600     750
151.4800     783
151.5000     806
151.5200     797
151.5400     779
151.5600     780
151.5800     792
151.6000     825
151.6200     863
151.6400     880
151.6600     871
151.6800     778
151.7000     678
151.7200     703
151.7400     770
151.7600     790
151.7800     794
151.8000     807
151.8200     832
151.8400     902
151.8600     977
151.8800     988
151.9000     978
151.9200     987
151.9400     991
151.9600     938
151.9800     875
152.0000     877
152.0200     906
152.0400     938
152.0600     974
152.0800    1015
152.1000    1060
152.1200    1108
152.1400    1148
152.1600    1137
152.1800    1107
152.2000    1092
152.2200    1084
152.2400    1086
152.2600    1095
152.2800    1121
152.3000    1153
152.3200    1190
152.3400    1221
152.3600    1219
152.3800    1212
152.4000    1250
152.4200    1300
152.4400    1320
152.4600    1324
152.4800    1313
152.5000    1299
152.5200    1307
152.5400    1332
152.5600    1403
152.5800    1481
152.6000    1494
152.6200    1480
152.6400    1458
152.6600    1439
152.6800    1455
152.7000    1496
152.7200    1595
152.7400    1706
152.7600    1761
152.7800    1785
152.8000    1774
152.8200    1745
152.8400    1701
152.8600    1668
152.8800    1720
152.9000    1795
152.9200    1818
152.9400    1821
152.9600    1829
152.9800    1838
153.0000    1842
153.0200    1835
153.0400    1778
153.0600    1712
153.0800    1698
153.1000    1729
153.1200    1887
153.1400    2068
153.1600    2114
153.1800    2112
153.2000    2143
153.2200    2162
153.2400    2053
153.2600    1928
153.2800    1983
153.3000    2105
153.3200    2205
153.3400    2293
153.3600    2358
153.3800    2414
153.4000    2473
153.4200    2501
153.4400    2366
153.4600    2203
153.4800    2226
153.5000    2315
153.5200    2356
153.5400    2386
153.5600    2454
153.5800    2516
153.6000    2466
153.6200    2389
153.6400    2394
153.6600    2449
153.6800    2592
153.7000    2717
153.7200    2574
153.7400    2375
153.7600    2433
153.7800    2579
153.8000    2658
153.8200    2710
153.8400    2762
153.8600    2821
153.8800    2915
153.9000    2994
153.9200    2926
153.9400    2798
153.9600    2659
153.9800    2534
154.0000    2507
154.0200    2502
154.0400    2410
154.0600    2333
154.0800    2501
154.1000    2738
154.1200    2827
154.1400    2842
154.1600    2784
154.1800    2705
154.2000    2674
154.2200    2647
154.2400    2547
154.2600    2446
154.2800    2492
154.3000    2593
154.3200    2680
154.3400    2746
154.3600    2727
154.3800    2674
154.4000    2614
154.4200    2558
154.4400    2527
154.4600    2513
154.4800    2527
154.5000    2551
154.5200    2565
154.5400    2584
154.5600    2648
154.5800    2710
154.6000    2672
154.6200    2576
154.6400    2385
154.6600    2209
154.6800    2290
154.7000    2440
154.7200    2420
154.7400    2327
154.7600    2210
154.7800    2126
154.8000    2249
154.8200    2404
154.8400    2307
154.8600    2143
154.8800    2144
154.9000    2218
154.9200    2320
154.9400    2413
154.9600    2401
154.9800    2350
155.0000    2314
155.0200    2282
155.0400    2239
155.0600    2177
155.0800    2045
155.1000    1910
155.1200    1903
155.1400    1960
155.1600    2084
155.1800    2202
155.2000    2163
155.2200    2054
155.2400    1905
155.2600    1765
155.2800    1745
155.3000    1781
155.3200    1854
155.3400    1917
155.3600    1855
155.3800    1761
155.4000    1757
155.4200    1776
155.4400    1733
155.4600    1689
155.4800    1767
155.5000    1847
155.5200    1700
155.5400    1510
155.5600    1557
155.5800    1663
155.6000    1589
155.6200    1468
155.6400    1472
155.6600    1509
155.6800    1463
155.7000    1395
155.7200    1390
155.7400    1409
155.7600    1425
155.7800    1442
155.8000    1476
155.8200    1511
155.8400    1522
155.8600    1514
155.8800    1455
155.9000    1375
155.9200    1295
155.9400    1231
155.9600    1252
155.9800    1292
156.0000    1264
156.0200    1218
156.0400    1223
156.0600    1236
156.0800    1179
156.1000    1110
156.1200    1113
156.1400    1138
156.1600    1131
156.1800    1117
156.2000    1135
156.2200    1162
156.2400    1177
156.2600    1187
156.2800    1197
156.3000    1187
156.3200    1072
156.3400     938
156.3600     914
156.3800     936
156.4000     970
156.4200    1011
156.4400    1067
156.4600    1121
156.4800    1137
156.5000    1122
156.5200    1033
156.5400     930
156.5600     902
156.5800     908
156.6000     934
156.6200     958
156.6400     932
156.6600     897
156.6800     912
156.7000     926
156.7200     830
156.7400     716
156.7600     729
156.7800     795
156.8000     874
156.8200     933
156.8400     865
156.8600     765
156.8800     755
156.9000     777
156.9200     774
156.9400     761
156.9600     745
156.9800     735
157.0000     768
157.0200     813
157.0400     833
157.0600     835
157.0800     797
157.1000     735
157.1200     632
157.1400     542
157.1600     603
157.1800     706
157.2000     713
157.2200     691
157.2400     722
157.2600     755
157.2800     695
157.3000     614
157.3200     620
157.3400     649
157.3600     628
157.3800     606
157.4000     682
157.4200     768
157.4400     702
157.4600     593
157.4800     569
157.5000     582
157.5200     610
157.5400     626
157.5600     551
157.5800     469
157.6000     542
157.6200     659
157.6400     691
157.6600     678
157.6800     613
157.7000     557
157.7200     648
157.7400     763
157.7600     701
157.7800     588
157.8000     572
157.8200     590
157.8400     591
157.8600     583
157.8800     562
157.9000     543
157.9200     561
157.9400     597
157.9600     656
157.9800     700
158.0000     621
158.0200     509
158.0400     480
158.0600     488
158.0800     514
158.1000     535
158.1200     490
158.1400     435
158.1600     465
158.1800     517
158.2000     509
158.2200     484
158.2400     495
158.2600     519
158.2800     528
158.3000     532
158.3200     533
158.3400     527
158.3600     492
158.3800     460
158.4000     495
158.4200     547
158.4400     552
158.4600     533
158.4800     488
158.5000     449
158.5200     500
158.5400     577
158.5600     612
158.5800     626
158.6000     619
158.6200     601
158.6400     574
158.6600     549
158.6800     546
158.7000     546
158.7200     518
158.7400     487
158.7600     502
158.7800     529
158.8000     521
158.8200     501
158.8400     488
158.8600     476
158.8800     457
158.9000     449
158.9200     511
158.9400     591
158.9600     616
158.9800     608
159.0000     540
159.0200     458
159.0400     423
159.0600     413
159.0800     434
159.1000     475
159.1200     551
159.1400     616
159.1600     551
159.1800     453
159.2000     447
159.2200     478
159.2400     517
159.2600     547
159.2800     517
159.3000     470
159.3200     458
159.3400     464
159.3600     487
159.3800     512
159.4000     512
159.4200     495
159.4400     445
159.4600     394
159.4800     411
159.5000     446
159.5200     436
159.5400     417
159.5600     441
159.5800     480
159.6000     501
159.6200     514
159.6400     520
159.6600     512
159.6800     444
159.7000     373
159.7200     404
159.7400     467
159.7600     488
159.7800     490
159.8000     484
159.8200     473
159.8400     459
159.8600     456
159.8800     519
159.9000     579
159.9200     488
159.9400     369
159.9600     415
159.9800     508
160.0000     509
160.0200     468
160.0400     402
160.0600     349
160.0800     408
160.1000     494
160.1200     490
160.1400     455
160.1600     448
160.1800     452
160.2000     456
160.2200     455
160.2400     429
160.2600     386
160.2800     308
160.3000     241
160.3200     297
160.3400     396
160.3600     455
160.3800     482
160.4000     424
160.4200     345
160.4400     333
160.4600     349
160.4800     375
160.5000     395
160.5200     365
160.5400     325
160.5600     335
160.5800     358
160.6000     349
160.6200     325
160.6400     286
160.6600     257
160.6800     305
160.7000     373
160.7200     394
160.7400     396
160.7600     393
160.7800     386
160.8000     362
160.8200     338
160.8400     343
160.8600     367
160.8800     434
160.9000     494
160.9200     432
160.9400     341
160.9600     344
160.9800     379
161.0000     389
161.0200     394
161.0400     424
161.0600     442
161.0800     355
161.1000     244
161.1200     230
161.1400     253
161.1600     272
161.1800     284
161.2000     261
161.2200     241
161.2400     298
161.2600     371
161.2800     369
161.3000     347
161.3200     376
161.3400     416
161.3600     401
161.3800     368
161.4000     347
161.4200     327
161.4400     292
161.4600     265
161.4800     315
161.5000     380
161.5200     373
161.5400     326
161.5600     221
161.5800     123
161.6000     176
161.6200     277
161.6400     312
161.6600     324
161.6800     357
161.7000     381
161.7200     310
161.7400     238
161.7600     348
161.7800     492
161.8000     446
161.8200     346
161.8400     358
161.8600     396
161.8800     345
161.9000     272
161.9200     259
161.9400     278
161.9600     330
161.9800     387