File: XRD_Tool/XRD_Tool/bin/Debug/LDA_sample_name_56789_Psi-24_20180623-000243.txt
141.0000     258
141.0200     245
141.0400     254
141.0600     264
141.0800     234
141.1000     194
141.1200     184
141.1400     179
141.1600     141
141.1800     105
141.2000     150
141.2200     210
141.2400     177
141.2600     124
141.2800     154
141.3000     203
141.3200     174
141.3400     122
141.3600     113
141.3800     126
141.4000     162
141.4200     199
141.4400     191
141.4600     168
141.4800     160
141.5000     165
141.5200     200
141.5400     231
141.5600     174
141.5800     102
141.6000     135
141.6200     206
141.6400     262
141.6600     302
141.6800     295
141.7000     274
141.7200     278
141.7400     282
141.7600     233
141.7800     175
141.8000     175
141.8200     200
141.8400     228
141.8600     247
141.8800     211
141.9000     165
141.9200     179
141.9400     212
141.9600     220
141.9800     214
142.0000     185
142.0200     146
142.0400     105
142.0600      80
142.0800     140
142.1000     215
142.1200     190
142.1400     140
142.1600     162
142.1800     203
142.2000     197
142.2200     174
142.2400     158
142.2600     157
142.2800     219
142.3000     293
142.3200     297
142.3400     268
142.3600     216
142.3800     168
142.4000     190
142.4200     228
142.4400     208
142.4600     178
142.4800     223
142.5000     283
142.5200     275
142.5400     248
142.5600     269
142.5800     297
142.6000     265
142.6200     220
142.6400     227
142.6600     257
142.6800     302
142.7000     330
142.7200     246
142.7400     138
142.7600     130
142.7800     161
142.8000     184
142.8200     201
142.8400     208
142.8600     208
142.8800     200
142.9000     189
142.9200     184
142.9400     182
142.9600     175
142.9800     170
143.0000     182
143.0200     195
143.0400     181
143.0600     165
143.0800     187
143.1000     233
143.1200     314
143.1400     386
143.1600     335
143.1800     243
143.2000     196
143.2200     175
143.2400     199
143.2600     232
143.2800     222
143.3000     197
143.3200     188
143.3400     188
143.3600     195
143.3800     206
143.4000     225
143.4200     247
143.4400     266
143.4600     264
143.4800     162
143.5000      57
143.5200     137
143.5400     272
143.5600     315
143.5800     318
143.6000     306
143.6200     283
143.6400     235
143.6600     190
143.6800     210
143.7000     240
143.7200     185
143.7400     119
143.7600     161
143.7800     233
143.8000     234
143.8200     213
143.8400     230
143.8600     256
143.8800     252
143.9000     237
143.9200     229
143.9400     220
143.9600     196
143.9800     173
144.0000     183
144.0200     201
144.0400     186
144.0600     159
144.0800     138
144.1000     126
144.1200     144
144.1400     167
144.1600     154
144.1800     135
144.2000     166
144.2200     209
144.2400     217
144.2600     209
144.2800     194
144.3000     174
144.3200     139
144.3400     104
144.3600      91
144.3800      86
144.4000      77
144.4200      79
144.4400     136
144.4600     209
144.4800     245
144.5000     263
144.5200     258
144.5400     239
144.5600     197
144.5800     148
144.6000     114
144.6200     100
144.6400     156
144.6600     225
144.6800     224
144.7000     194
144.7200     166
144.7400     140
144.7600     127
144.7800     123
144.8000     141
144.8200     168
144.8400     202
144.8600     229
144.8800     211
144.9000     189
144.9200     238
144.9400     302
144.9600     296
144.9800     264
145.0000     239
145.0200     215
145.0400     181
145.0600     147
145.0800     131
145.1000     124
145.1200     124
145.1400     136
145.1600     201
145.1800     276
145.2000     293
145.2200     282
145.2400     249
145.2600     216
145.2800     225
145.3000     257
145.3200     317
145.3400     368
145.3600     316
145.3800     236
145.4000     229
145.4200     250
145.4400     263
145.4600     277
145.4800     311
145.5000     346
145.5200     346
145.5400     324
145.5600     264
145.5800     204
145.6000     229
145.6200     277
145.6400     275
145.6600     263
145.6800     303
145.7000     344
145.7200     290
145.7400     213
145.7600     211
145.7800     233
145.8000     230
145.8200     214
145.8400     190
145.8600     171
145.8800     200
145.9000     248
145.9200     298
145.9400     334
145.9600     298
145.9800     244
146.0000     238
146.0200     249
146.0400     242
146.0600     235
146.0800     265
146.1000     297
146.1200     274
146.1400     227
146.1600     173
146.1800     130
146.2000     152
146.2200     206
146.2400     287
146.2600     354
146.2800     297
146.3000     211
146.3200     222
146.3400     267
146.3600     287
146.3800     296
146.4000     300
146.4200     298
146.4400     276
146.4600     244
146.4800     200
146.5000     155
146.5200     122
146.5400     105
146.5600     146
146.5800     202
146.6000     215
146.6200     220
146.6400     275
146.6600     334
146.6800     318
146.7000     278
146.7200     268
146.7400     273
146.7600     293
146.7800     316
146.8000     322
146.8200     314
146.8400     264
146.8600     204
146.8800     174
146.9000     158
146.9200     151
146.9400     158
146.9600     223
146.9800     303
147.0000     345
147.0200     364
147.0400     346
147.0600     306
147.0800     228
147.1000     151
147.1200     162
147.1400     208
147.1600     253
147.1800     290
147.2000     295
147.2200     297
147.2400     349
147.2600     409
147.2800     407
147.3000     383
147.3200     364
147.3400     349
147.3600     341
147.3800     337
147.4000     343
147.4200     341
147.4400     282
147.4600     220
147.4800     257
147.5000     323
147.5200     339
147.5400     329
147.5600     294
147.5800     253
147.6000     237
147.6200     235
147.6400     253
147.6600     272
147.6800     259
147.7000     234
147.7200     209
147.7400     194
147.7600     222
147.7800     261
147.8000     265
147.8200     257
147.8400     259
147.8600     266
147.8800     278
147.9000     291
147.9200     298
147.9400     298
147.9600     283
147.9800     265
148.0000     270
148.0200     280
148.0400     267
148.0600     249
148.0800     249
148.1000     270
148.1200     356
148.1400     441
148.1600     391
148.1800     307
148.2000     320
148.2200     354
148.2400     299
148.2600     223
148.2800     214
148.3000     230
148.3200     239
148.3400     242
148.3600     225
148.3800     215
148.4000     275
148.4200     351
148.4400     364
148.4600     342
148.4800     270
148.5000     189
148.5200     166
148.5400     173
148.5600     212
148.5800     257
148.6000     272
148.6200     273
148.6400     269
148.6600     267
148.6800     287
148.7000     300
148.7200     243
148.7400     174
148.7600     193
148.7800     248
148.8000     303
148.8200     349
148.8400     345
148.8600     321
148.8800     297
148.9000     276
148.9200     268
148.9400     274
148.9600     320
148.9800     368
149.0000     343
149.0200     299
149.0400     308
149.0600     330
149.0800     309
149.1000     276
149.1200     268
149.1400     270
149.1600     274
149.1800     279
149.2000     290
149.2200     302
149.2400     299
149.2600     289
149.2800     271
149.3000     260
149.3200     306
149.3400     359
149.3600     340
149.3800     298
149.4000     286
149.4200     288
149.4400     297
149.4600     311
149.4800     336
149.5000     364
149.5200     382
149.5400     381
149.5600     300
149.5800     212
149.6000     246
149.6200     324
149.6400     382
149.6600     423
149.6800     421
149.7000     396
149.7200     349
149.7400     305
149.7600     318
149.7800     358
149.8000     418
149.8200     468
149.8400     433
149.8600     379
149.8800     405
149.9000     449
149.9200     426
149.9400     388
149.9600     405
149.9800     434
150.0000     410
150.0200     374
150.0400     388
150.0600     425
150.0800     480
150.1000     526
150.1200     491
150.1400     431
150.1600     414
150.1800     414
150.2000     414
150.2200     406
150.2400     360
150.2600     320
150.2800     388
150.3000     482
150.3200     488
150.3400     457
150.3600     419
150.3800     389
150.4000     407
150.4200     447
150.4400     494
150.4600     526
150.4800     466
150.5000     388
150.5200     402
150.5400     446
150.5600     460
150.5800     457
150.6000     431
150.6200     404
150.6400     427
150.6600     470
150.6800     518
150.7000     559
150.7200     553
150.7400     543
150.7600     600
150.7800     654
150.8000     558
150.8200     438
150.8400     498
150.8600     606
150.8800     597
150.9000     544
150.9200     508
150.9400     486
150.9600     502
150.9800     529
151.0000     528
151.0200     519
151.0400     526
151.0600     546
151.0800     596
151.1000     637
151.1200     570
151.1400     479
151.1600     483
151.1800     519
151.2000     523
151.2200     519
151.2400     533
151.2600     561
151.2800     618
151.3000     667
151.3200     621
151.3400     550
151.3600     547
151.3800     573
151.4000     611
151.4200     647
151.4400     653
151.4600     646
151.4800     637
151.5000     640
151.5200     707
151.5400     782
151.5600     773
151.5800     728
151.6000     663
151.6200     603
151.6400     601
151.6600     634
151.6800     721
151.7000     804
151.7200     767
151.7400     697
151.7600     710
151.7800     761
151.8000     837
151.8200     888
151.8400     763
151.8600     602
151.8800     621
151.9000     701
151.9200     729
151.9400     733
151.9600     719
151.9800     699
152.0000     691
152.0200     695
152.0400     739
152.0600     783
152.0800     752
152.1000     702
152.1200     712
152.1400     746
152.1600     783
152.1800     831
152.2000     926
152.2200    1015
152.2400     982
152.2600     912
152.2800     897
152.3000     907
152.3200     929
152.3400     961
152.3600    1023
152.3800    1079
152.4000    1047
152.4200     992
152.4400    1007
152.4600    1039
152.4800    1021
152.5000     997
152.5200    1041
152.5400    1097
152.5600    1073
152.5800    1039
152.6000    1112
152.6200    1216
152.6400    1265
152.6600    1277
152.6800    1217
152.7000    1133
152.7200    1067
152.7400    1044
152.7600    1191
152.7800    1369
152.8000    1359
152.8200    1286
152.8400    1281
152.8600    1324
152.8800    1471
152.9000    1610
152.9200    1507
152.9400    1342
152.9600    1352
152.9800    1430
153.0000    1496
153.0200    1555
153.0400    1599
153.0600    1640
153.0800    1691
153.1000    1736
153.1200    1724
153.1400    1685
153.1600    1616
153.1800    1559
153.2000    1615
153.2200    1707
153.2400    1749
153.2600    1775
153.2800    1816
153.3000    1848
153.3200    1797
153.3400    1727
153.3600    1732
153.3800    1781
153.4000    1905
153.4200    2034
153.4400    2040
153.4600    1995
153.4800    1946
153.5000    1917
153.5200    1992
153.5400    2099
153.5600    2162
153.5800    2195
153.6000    2163
153.6200    2105
153.6400    2042
153.6600    2005
153.6800    2101
153.7000    2239
153.7200    2314
153.7400    2344
153.7600    2272
153.7800    2183
153.8000    2211
153.8200    2280
153.8400    2324
153.8600    2347
153.8800    2318
153.9000    2287
153.9200    2346
153.9400    2417
153.9600    2360
153.9800    2260
154.0000    2200
154.0200    2173
154.0400    2234
154.0600    2332
154.0800    2440
154.1000    2534
154.1200    2535
154.1400    2509
154.1600    2538
154.1800    2577
154.2000    2559
154.2200    2521
154.2400    2493
154.2600    2463
154.2800    2405
154.3000    2361
154.3200    2447
154.3400    2548
154.3600    2466
154.3800    2340
154.4000    2367
154.4200    2447
154.4400    2485
154.4600    2493
154.4800    2426
154.5000    2360
154.5200    2442
154.5400    2562
154.5600    2567
154.5800    2526
154.6000    2482
154.6200    2450
154.6400    2491
154.6600    2550
154.6800    2553
154.7000    2533
154.7200    2516
154.7400    2496
154.7600    2453
154.7800    2398
154.8000    2328
154.8200    2261
154.8400    2240
154.8600    2238
154.8800    2233
154.9000    2229
154.9200    2235
154.9400    2240
154.9600    2220
154.9800    2187
155.0000    2139
155.0200    2095
155.0400    2099
155.0600    2117
155.0800    2102
155.1000    2069
155.1200    2014
155.1400    1964
155.1600    1986
155.1800    2014
155.2000    1935
155.2200    1840
155.2400    1875
155.2600    1944
155.2800    1915
155.3000    1846
155.3200    1777
155.3400    1731
155.3600    1805
155.3800    1902
155.4000    1876
155.4200    1812
155.4400    1813
155.4600    1822
155.4800    1748
155.5000    1667
155.5200    1724
155.5400    1820
155.5600    1834
155.5800    1826
155.6000    1863
155.6200    1898
155.6400    1830
155.6600    1737
155.6800    1732
155.7000    1765
155.7200    1808
155.7400    1824
155.7600    1680
155.7800    1507
155.8000    1506
155.8200    1558
155.8400    1533
155.8600    1487
155.8800    1489
155.9000    1506
155.9200    1493
155.9400    1479
155.9600    1515
155.9800    1555
156.0000    1515
156.0200    1446
156.0400    1389
156.0600    1345
156.0800    1341
156.1000    1347
156.1200    1328
156.1400    1297
156.1600    1261
156.1800    1227
156.2000    1216
156.2200    1214
156.2400    1212
156.2600    1196
156.2800    1107
156.3000    1007
156.3200     995
156.3400    1019
156.3600    1041
156.3800    1068
156.4000    1120
156.4200    1161
156.4400    1097
156.4600    1009
156.4800    1008
156.5000    1034
156.5200    1023
156.5400    1002
156.5600    1005
156.5800    1013
156.6000    1001
156.6200     973
156.6400     906
156.6600     842
156.6800     865
156.7000     915
156.7200     928
156.7400     922
156.7600     891
156.7800     867
156.8000     925
156.8200     992
156.8400     944
156.8600     852
156.8800     768
156.9000     711
156.9200     767
156.9400     857
156.9600     884
156.9800     887
157.0000     895
157.0200     900
157.0400     878
157.0600     837
157.0800     751
157.1000     669
157.1200     697
157.1400     752
157.1600     719
157.1800     660
157.2000     649
157.2200     661
157.2400     691
157.2600     722
157.2800     715
157.3000     698
157.3200     709
157.3400     719
157.3600     668
157.3800     609
157.4000     638
157.4200     688
157.4400     668
157.4600     628
157.4800     628
157.5000     643
157.5200     651
157.5400     654
157.5600     642
157.5800     622
157.6000     591
157.6200     560
157.6400     554
157.6600     567
157.6800     625
157.7000     682
157.7200     644
157.7400     571
157.7600     514
157.7800     476
157.8000     495
157.8200     535
157.8400     568
157.8600     589
157.8800     560
157.9000     505
157.9200     415
157.9400     340
157.9600     412
157.9800     520
158.0000     521
158.0200     488
158.0400     497
158.0600     527
158.0800     577
158.1000     623
158.1200     609
158.1400     566
158.1600     496
158.1800     437
158.2000     483
158.2200     560
158.2400     579
158.2600     572
158.2800     551
158.3000     525
158.3200     498
158.3400     468
158.3600     431
158.3800     407
158.4000     460
158.4200     526
158.4400     505
158.4600     453
158.4800     421
158.5000     405
158.5200     429
158.5400     466
158.5600     490
158.5800     502
158.6000     486
158.6200     460
158.6400     444
158.6600     429
158.6800     399
158.7000     367
158.7200     358
158.7400     371
158.7600     447
158.7800     530
158.8000     513
158.8200     464
158.8400     447
158.8600     445
158.8800     453
158.9000     461
158.9200     449
158.9400     427
158.9600     398
158.9800     373
159.0000     380
159.0200     390
159.0400     350
159.0600     307
159.0800     352
159.1000     418
159.1200     411
159.1400     381
159.1600     384
159.1800     395
159.2000     383
159.2200     370
159.2400     402
159.2600     437
159.2800     397
159.3000     339
159.3200     339
159.3400     360
159.3600     363
159.3800     364
159.4000     390
159.4200     419
159.4400     416
159.4600     405
159.4800     419
159.5000     428
159.5200     362
159.5400     286
159.5600     312
159.5800     368
159.6000     374
159.6200     368
159.6400     405
159.6600     452
159.6800     459
159.7000     442
159.7200     377
159.7400     307
159.7600     312
159.7800     345
159.8000     371
159.8200     392
159.8400     398
159.8600     390
159.8800     344
159.9000     294
159.9200     307
159.9400     340
159.9600     348
159.9800     346
160.0000     343
160.0200     345
160.0400     377
160.0600     403
160.0800     342
160.1000     274
160.1200     346
160.1400     442
160.1600     378
160.1800     267
160.2000     241
160.2200     250
160.2400     262
160.2600     268
160.2800     231
160.3000     199
160.3200     275
160.3400     367
160.3600     319
160.3800     238
160.4000     274
160.4200     346
160.4400     366
160.4600     360
160.4800     324
160.5000     274
160.5200     214
160.5400     170
160.5600     224
160.5800     310
160.6000     355
160.6200     370
160.6400     323
160.6600     271
160.6800     321
160.7000     399
160.7200     415
160.7400     409
160.7600     413
160.7800     409
160.8000     343
160.8200     274
160.8400     309
160.8600     375
160.8800     392
160.9000     379
160.9200     308
160.9400     229
160.9600     223
160.9800     251
161.0000     301
161.0200     345
161.0400     321
161.0600     281
161.0800     301
161.1000     337
161.1200     333
161.1400     313
161.1600     294
161.1800     278
161.2000     269
161.2200     270
161.2400     308
161.2600     339
161.2800     266
161.3000     176
161.3200     201
161.3400     264
161.3600     279
161.3800     281
161.4000     316
161.4200     359
161.4400     379
161.4600     376
161.4800     310
161.5000     237
161.5200     259
161.5400     312
161.5600     330
161.5800     327
161.6000     294
161.6200     259
161.6400     277
161.6600     306
161.6800     277
161.7000     232
161.7200     225
161.7400     236
161.7600     259
161.7800     280
161.8000     269
161.8200     244
161.8400     211
161.8600     185
161.8800     212
161.9000     256
161.9200     280
161.9400     292
161.9600     281
161.9800     266
162.0000     279
162.0200     304
162.0400     332
162.0600     356
162.0800     350
162.1000     333
162.1200     316
162.1400     300
162.1600     282
162.1800     263
162.2000     239
162.2200     220
162.2400     233
162.2600     252
162.2800     234
162.3000     219
162.3200     286
162.3400     358
162.3600     291
162.3800     194
162.4000     217
162.4200     278
162.4400     286
162.4600     276
162.4800     286
162.5000     301
162.5200     303
162.5400     297
162.5600     281
162.5800     258
162.6000     220
162.6200     189
162.6400     228
162.6600     271
162.6800     197
162.7000      98
162.7200     106
162.7400     157
162.7600     213
162.7800     260
162.8000     254
162.8200     233
162.8400     250
162.8600     274
162.8800     256
162.9000     230
162.9200     243
162.9400     269
162.9600     288
162.9800     295
163.0000     257
163.0200     209
163.0400     199
163.0600     215
163.0800     281
163.1000     345
163.1200     299
163.1400     227
163.1600     240
163.1800     278
163.2000     264
163.2200     228
163.2400     181
163.2600     140
163.2800     155
163.3000     191
163.3200     212
163.3400     234
163.3600     284
163.3800     334
163.4000     319
163.4200     290
163.4400     314
163.4600     350
163.4800     331
163.5000     281
163.5200     181
163.5400      81
163.5600      79
163.5800     120
163.6000     175
163.6200     223
163.6400     216
163.6600     190
163.6800     186
163.7000     192
163.7200     211
163.7400     237
163.7600     271
163.7800     299
163.8000     272
163.8200     233
163.8400     241
163.8600     263
163.8800     267
163.9000     254
163.9200     196
163.9400     130
163.9600     117
163.9800     128
164.0000     151
164.0200     179
164.0400     208
164.0600     233
164.0800     233
164.1000     224
164.1200     215
164.1400     208
164.1600     203
164.1800     204
164.2000     235
164.2200     264
164.2400     231
164.2600     185
164.2800     198
164.3000     227
164.3200     221
164.3400     201
164.3600     181
164.3800     172
164.4000     219
164.4200     281
164.4400     298
164.4600     291
164.4800     246
164.5000     195
164.5200     190
164.5400     196
164.5600     162
164.5800     122
164.6000     132
164.6200     157
164.6400     154
164.6600     141
164.6800     136
164.7000     138
164.7200     157
164.7400     190
164.7600     261
164.7800     321
164.8000     251
164.8200     152
164.8400     165
164.8600     216
164.8800     235
164.9000     236
164.9200     209
164.9400     173
164.9600     147
164.9800     127