File: XRD_Tool/XRD_Tool/bin/Debug/LDA_sample_name_56789_Psi-45_20180623-000633.txt
138.0000     204
138.0200     120
138.0400     146
138.0600     207
138.0800     223
138.1000     226
138.1200     249
138.1400     270
138.1600     238
138.1800     192
138.2000     186
138.2200     191
138.2400     169
138.2600     142
138.2800     138
138.3000     140
138.3200     122
138.3400     103
138.3600     114
138.3800     135
138.4000     138
138.4200     139
138.4400     168
138.4600     203
138.4800     215
138.5000     216
138.5200     214
138.5400     208
138.5600     195
138.5800     179
138.6000     161
138.6200     150
138.6400     169
138.6600     198
138.6800     214
138.7000     219
138.7200     199
138.7400     172
138.7600     162
138.7800     159
138.8000     162
138.8200     165
138.8400     152
138.8600     127
138.8800      82
138.9000      42
138.9200      72
138.9400     128
138.9600     176
138.9800     216
139.0000     241
139.0200     253
139.0400     238
139.0600     216
139.0800     211
139.1000     212
139.1200     206
139.1400     200
139.1600     206
139.1800     212
139.2000     196
139.2200     175
139.2400     169
139.2600     177
139.2800     222
139.3000     270
139.3200     259
139.3400     233
139.3600     247
139.3800     272
139.4000     269
139.4200     253
139.4400     230
139.4600     212
139.4800     231
139.5000     257
139.5200     245
139.5400     219
139.5600     206
139.5800     202
139.6000     218
139.6200     235
139.6400     214
139.6600     188
139.6800     212
139.7000     248
139.7200     245
139.7400     233
139.7600     248
139.7800     267
139.8000     254
139.8200     232
139.8400     230
139.8600     235
139.8800     235
139.9000     238
139.9200     263
139.9400     284
139.9600     240
139.9800     180
140.0000     168
140.0200     180
140.0400     210
140.0600     244
140.0800     258
140.1000     260
140.1200     241
140.1400     214
140.1600     195
140.1800     190
140.2000     237
140.2200     290
140.2400     268
140.2600     222
140.2800     206
140.3000     211
140.3200     264
140.3400     317
140.3600     273
140.3800     200
140.4000     169
140.4200     158
140.4400     165
140.4600     183
140.4800     216
140.5000     251
140.5200     263
140.5400     266
140.5600     272
140.5800     276
140.6000     262
140.6200     242
140.6400     234
140.6600     232
140.6800     241
140.7000     251
140.7200     238
140.7400     222
140.7600     238
140.7800     262
140.8000     266
140.8200     261
140.8400     254
140.8600     249
140.8800     257
140.9000     265
140.9200     240
140.9400     213
140.9600     241
140.9800     280
141.0000     264
141.0200     236
141.0400     256
141.0600     282
141.0800     236
141.1000     175
141.1200     179
141.1400     207
141.1600     220
141.1800     224
141.2000     206
141.2200     191
141.2400     228
141.2600     277
141.2800     284
141.3000     275
141.3200     266
141.3400     264
141.3600     290
141.3800     319
141.4000     298
141.4200     267
141.4400     283
141.4600     304
141.4800     262
141.5000     211
141.5200     250
141.5400     305
141.5600     268
141.5800     207
141.6000     206
141.6200     232
141.6400     270
141.6600     303
141.6800     293
141.7000     261
141.7200     214
141.7400     171
141.7600     185
141.7800     212
141.8000     199
141.8200     183
141.8400     235
141.8600     303
141.8800     308
141.9000     288
141.9200     268
141.9400     253
141.9600     266
141.9800     284
142.0000     272
142.0200     251
142.0400     247
142.0600     247
142.0800     240
142.1000     232
142.1200     231
142.1400     233
142.1600     237
142.1800     244
142.2000     269
142.2200     289
142.2400     247
142.2600     197
142.2800     224
142.3000     279
142.3200     321
142.3400     353
142.3600     365
142.3800     369
142.4000     374
142.4200     374
142.4400     339
142.4600     302
142.4800     320
142.5000     346
142.5200     304
142.5400     247
142.5600     258
142.5800     295
142.6000     327
142.6200     352
142.6400     347
142.6600     327
142.6800     285
142.7000     246
142.7200     262
142.7400     294
142.7600     296
142.7800     286
142.8000     271
142.8200     261
142.8400     279
142.8600     301
142.8800     280
142.9000     246
142.9200     234
142.9400     235
142.9600     264
142.9800     296
143.0000     285
143.0200     264
143.0400     283
143.0600     314
143.0800     333
143.1000     343
143.1200     332
143.1400     318
143.1600     337
143.1800     368
143.2000     391
143.2200     406
143.2400     399
143.2600     380
143.2800     348
143.3000     309
143.3200     263
143.3400     236
143.3600     311
143.3800     403
143.4000     376
143.4200     312
143.4400     293
143.4600     295
143.4800     304
143.5000     314
143.5200     317
143.5400     320
143.5600     335
143.5800     347
143.6000     324
143.6200     293
143.6400     297
143.6600     309
143.6800     289
143.7000     267
143.7200     295
143.7400     342
143.7600     384
143.7800     410
143.8000     366
143.8200     304
143.8400     289
143.8600     296
143.8800     321
143.9000     347
143.9200     343
143.9400     329
143.9600     322
143.9800     315
144.0000     298
144.0200     288
144.0400     336
144.0600     395
144.0800     386
144.1000     353
144.1200     336
144.1400     337
144.1600     390
144.1800     454
144.2000     466
144.2200     452
144.2400     405
144.2600     354
144.2800     351
144.3000     365
144.3200     369
144.3400     368
144.3600     362
144.3800     357
144.4000     364
144.4200     362
144.4400     290
144.4600     214
144.4800     259
144.5000     338
144.5200     342
144.5400     319
144.5600     308
144.5800     309
144.6000     345
144.6200     384
144.6400     370
144.6600     338
144.6800     327
144.7000     325
144.7200     318
144.7400     321
144.7600     379
144.7800     442
144.8000     422
144.8200     378
144.8400     386
144.8600     402
144.8800     361
144.9000     308
144.9200     307
144.9400     328
144.9600     354
144.9800     372
145.0000     343
145.0200     303
145.0400     301
145.0600     310
145.0800     294
145.1000     281
145.1200     328
145.1400     394
145.1600     430
145.1800     445
145.2000     413
145.2200     371
145.2400     368
145.2600     375
145.2800     360
145.3000     344
145.3200     365
145.3400     396
145.3600     407
145.3800     409
145.4000     411
145.4200     414
145.4400     420
145.4600     420
145.4800     377
145.5000     323
145.5200     300
145.5400     298
145.5600     335
145.5800     376
145.6000     362
145.6200     333
145.6400     342
145.6600     362
145.6800     360
145.7000     353
145.7200     361
145.7400     371
145.7600     360
145.7800     348
145.8000     381
145.8200     419
145.8400     399
145.8600     362
145.8800     363
145.9000     375
145.9200     365
145.9400     346
145.9600     317
145.9800     293
146.0000     307
146.0200     335
146.0400     350
146.0600     362
146.0800     384
146.1000     402
146.1200     382
146.1400     356
146.1600     381
146.1800     421
146.2000     430
146.2200     428
146.2400     437
146.2600     446
146.2800     425
146.3000     395
146.3200     373
146.3400     356
146.3600     344
146.3800     333
146.4000     317
146.4200     309
146.4400     351
146.4600     400
146.4800     384
146.5000     342
146.5200     300
146.5400     278
146.5600     355
146.5800     455
146.6000     476
146.6200     467
146.6400     460
146.6600     449
146.6800     413
146.7000     370
146.7200     340
146.7400     319
146.7600     313
146.7800     324
146.8000     388
146.8200     458
146.8400     447
146.8600     406
146.8800     381
146.9000     367
146.9200     373
146.9400     392
146.9600     431
146.9800     465
147.0000     431
147.0200     382
147.0400     396
147.0600     434
147.0800     459
147.1000     469
147.1200     432
147.1400     381
147.1600     357
147.1800     350
147.2000     378
147.2200     411
147.2400     399
147.2600     377
147.2800     397
147.3000     433
147.3200     474
147.3400     504
147.3600     472
147.3800     425
147.4000     425
147.4200     441
147.4400     445
147.4600     440
147.4800     407
147.5000     371
147.5200     380
147.5400     407
147.5600     441
147.5800     471
147.6000     476
147.6200     471
147.6400     471
147.6600     471
147.6800     459
147.7000     450
147.7200     473
147.7400     501
147.7600     489
147.7800     457
147.8000     406
147.8200     366
147.8400     415
147.8600     482
147.8800     469
147.9000     435
147.9200     463
147.9400     507
147.9600     514
147.9800     509
148.0000     517
148.0200     522
148.0400     482
148.0600     435
148.0800     440
148.1000     459
148.1200     445
148.1400     422
148.1600     429
148.1800     448
148.2000     472
148.2200     490
148.2400     471
148.2600     437
148.2800     400
148.3000     373
148.3200     404
148.3400     446
148.3600     425
148.3800     396
148.4000     452
148.4200     528
148.4400     537
148.4600     520
148.4800     503
148.5000     488
148.5200     478
148.5400     473
148.5600     480
148.5800     483
148.6000     446
148.6200     404
148.6400     420
148.6600     459
148.6800     495
148.7000     526
148.7200     542
148.7400     543
148.7600     502
148.7800     454
148.8000     451
148.8200     459
148.8400     427
148.8600     393
148.8800     429
148.9000     480
148.9200     468
148.9400     434
148.9600     423
148.9800     424
149.0000     440
149.0200     459
149.0400     458
149.0600     452
149.0800     458
149.1000     466
149.1200     462
149.1400     452
149.1600     429
149.1800     408
149.2000     427
149.2200     461
149.2400     497
149.2600     531
149.2800     556
149.3000     564
149.3200     502
149.3400     428
149.3600     433
149.3800     468
149.4000     499
149.4200     526
149.4400     538
149.4600     536
149.4800     494
149.5000     445
149.5200     438
149.5400     449
149.5600     465
149.5800     482
149.6000     497
149.6200     511
149.6400     524
149.6600     538
149.6800     567
149.7000     586
149.7200     532
149.7400     470
149.7600     519
149.7800     590
149.8000     543
149.8200     461
149.8400     442
149.8600     455
149.8800     503
149.9000     551
149.9200     526
149.9400     478
149.9600     463
149.9800     464
150.0000     480
150.0200     501
150.0400     516
150.0600     520
150.0800     484
150.1000     439
150.1200     434
150.1400     443
150.1600     447
150.1800     449
150.2000     453
150.2200     462
150.2400     499
150.2600     541
150.2800     550
150.3000     541
150.3200     510
150.3400     483
150.3600     519
150.3800     570
150.4000     563
150.4200     534
150.4400     512
150.4600     502
150.4800     545
150.5000     597
150.5200     586
150.5400     553
150.5600     535
150.5800     525
150.6000     526
150.6200     538
150.6400     579
150.6600     621
150.6800     616
150.7000     593
150.7200     573
150.7400     561
150.7600     574
150.7800     594
150.8000     591
150.8200     573
150.8400     528
150.8600     479
150.8800     465
150.9000     463
150.9200     453
150.9400     450
150.9600     505
150.9800     568
151.0000     556
151.0200     516
151.0400     483
151.0600     466
151.0800     516
151.1000     582
151.1200     598
151.1400     598
151.1600     621
151.1800     640
151.2000     594
151.2200     535
151.2400     543
151.2600     571
151.2800     567
151.3000     560
151.3200     595
151.3400     631
151.3600     587
151.3800     526
151.4000     545
151.4200     595
151.4400     647
151.4600     694
151.4800     721
151.5000     733
151.5200     713
151.5400     690
151.5600     714
151.5800     738
151.6000     672
151.6200     587
151.6400     590
151.6600     631
151.6800     686
151.7000     732
151.7200     713
151.7400     671
151.7600     647
151.7800     637
151.8000     655
151.8200     687
151.8400     724
151.8600     760
151.8800     774
151.9000     780
151.9200     781
151.9400     777
151.9600     753
151.9800     726
152.0000     722
152.0200     728
152.0400     731
152.0600     723
152.0800     668
152.1000     607
152.1200     610
152.1400     636
152.1600     657
152.1800     678
152.2000     714
152.2200     759
152.2400     817
152.2600     871
152.2800     872
152.3000     854
152.3200     846
152.3400     843
152.3600     846
152.3800     848
152.4000     830
152.4200     807
152.4400     798
152.4600     794
152.4800     791
152.5000     804
152.5200     891
152.5400     989
152.5600     998
152.5800     975
152.6000     966
152.6200     969
152.6400    1007
152.6600    1039
152.6800     974
152.7000     892
152.7200     917
152.7400     977
152.7600     998
152.7800    1002
152.8000     996
152.8200     988
152.8400     990
152.8600    1004
152.8800    1058
152.9000    1115
152.9200    1107
152.9400    1077
152.9600    1067
152.9800    1068
153.0000    1081
153.0200    1094
153.0400    1085
153.0600    1071
153.0800    1076
153.1000    1103
153.1200    1210
153.1400    1322
153.1600    1302
153.1800    1247
153.2000    1275
153.2200    1321
153.2400    1284
153.2600    1229
153.2800    1252
153.3000    1290
153.3200    1243
153.3400    1186
153.3600    1241
153.3800    1327
153.4000    1343
153.4200    1338
153.4400    1371
153.4600    1410
153.4800    1404
153.5000    1387
153.5200    1405
153.5400    1435
153.5600    1457
153.5800    1472
153.6000    1470
153.6200    1473
153.6400    1529
153.6600    1593
153.6800    1586
153.7000    1554
153.7200    1545
153.7400    1549
153.7600    1573
153.7800    1597
153.8000    1579
153.8200    1562
153.8400    1625
153.8600    1702
153.8800    1682
153.9000    1649
153.9200    1740
153.9400    1836
153.9600    1712
153.9800    1539
154.0000    1562
154.0200    1662
154.0400    1747
154.0600    1811
154.0800    1797
154.1000    1769
154.1200    1831
154.1400    1921
154.1600    1974
154.1800    1990
154.2000    1895
154.2200    1778
154.2400    1779
154.2600    1822
154.2800    1840
154.3000    1855
154.3200    1902
154.3400    1941
154.3600    1878
154.3800    1803
154.4000    1875
154.4200    1982
154.4400    1972
154.4600    1932
154.4800    1970
154.5000    2036
154.5200    2081
154.5400    2102
154.5600    2048
154.5800    1999
154.6000    2125
154.6200    2273
154.6400    2181
154.6600    2021
154.6800    2006
154.7000    2039
154.7200    2029
154.7400    2003
154.7600    1992
154.7800    2010
154.8000    2150
154.8200    2299
154.8400    2256
154.8600    2142
154.8800    2056
154.9000    1998
154.9200    2020
154.9400    2073
154.9600    2118
154.9800    2148
155.0000    2121
155.0200    2080
155.0400    2081
155.0600    2091
155.0800    2063
155.1000    2028
155.1200    2038
155.1400    2060
155.1600    2053
155.1800    2041
155.2000    2058
155.2200    2084
155.2400    2101
155.2600    2112
155.2800    2108
155.3000    2090
155.3200    2027
155.3400    1955
155.3600    1925
155.3800    1896
155.4000    1790
155.4200    1689
155.4400    1761
155.4600    1895
155.4800    1986
155.5000    2036
155.5200    1966
155.5400    1879
155.5600    1947
155.5800    2048
155.6000    2007
155.6200    1913
155.6400    1838
155.6600    1793
155.6800    1866
155.7000    1954
155.7200    1882
155.7400    1770
155.7600    1778
155.7800    1825
155.8000    1827
155.8200    1815
155.8400    1823
155.8600    1820
155.8800    1724
155.9000    1610
155.9200    1598
155.9400    1623
155.9600    1633
155.9800    1637
156.0000    1646
156.0200    1640
156.0400    1554
156.0600    1460
156.0800    1488
156.1000    1557
156.1200    1591
156.1400    1606
156.1600    1599
156.1800    1596
156.2000    1658
156.2200    1712
156.2400    1598
156.2600    1438
156.2800    1386
156.3000    1377
156.3200    1365
156.3400    1354
156.3600    1360
156.3800    1385
156.4000    1480
156.4200    1583
156.4400    1591
156.4600    1550
156.4800    1452
156.5000    1349
156.5200    1333
156.5400    1345
156.5600    1329
156.5800    1297
156.6000    1245
156.6200    1203
156.6400    1256
156.6600    1325
156.6800    1291
156.7000    1227
156.7200    1228
156.7400    1241
156.7600    1192
156.7800    1136
156.8000    1170
156.8200    1231
156.8400    1244
156.8600    1233
156.8800    1197
156.9000    1161
156.9200    1178
156.9400    1206
156.9600    1181
156.9800    1141
157.0000    1134
157.0200    1140
157.0400    1145
157.0600    1151
157.0800    1170
157.1000    1190
157.1200    1192
157.1400    1179
157.1600    1134
157.1800    1076
157.2000    1017
157.2200     963
157.2400     939
157.2600     933
157.2800     957
157.3000     985
157.3200     976
157.3400     959
157.3600     977
157.3800    1004
157.4000    1004
157.4200     988
157.4400     941
157.4600     883
157.4800     838
157.5000     817
157.5200     889
157.5400     976
157.5600     945
157.5800     879
157.6000     876
157.6200     895
157.6400     898
157.6600     903
157.6800     953
157.7000    1006
157.7200     984
157.7400     945
157.7600     972
157.7800    1006
157.8000     937
157.8200     853
157.8400     899
157.8600     974
157.8800     932
157.9000     855
157.9200     830
157.9400     823
157.9600     801
157.9800     787
158.0000     844
158.0200     910
158.0400     875
158.0600     807
158.0800     782
158.1000     785
158.1200     841
158.1400     898
158.1600     849
158.1800     770
158.2000     759
158.2200     781
158.2400     833
158.2600     873
158.2800     790
158.3000     685
158.3200     720
158.3400     792
158.3600     777
158.3800     737
158.4000     747
158.4200     771
158.4400     762
158.4600     759
158.4800     849
158.5000     942
158.5200     858
158.5400     726
158.5600     699
158.5800     715
158.6000     729
158.6200     744
158.6400     759
158.6600     772
158.6800     767
158.7000     755
158.7200     744
158.7400     732
158.7600     707
158.7800     680
158.8000     670
158.8200     664
158.8400     651
158.8600     644
158.8800     682
158.9000     725
158.9200     701
158.9400     665
158.9600     696
158.9800     739
159.0000     707
159.0200     654
159.0400     649
159.0600     662
159.0800     670
159.1000     679
159.1200     700
159.1400     726
159.1600     754
159.1800     772
159.2000     745
159.2200     707
159.2400     707
159.2600     716
159.2800     687
159.3000     649
159.3200     646
159.3400     652
159.3600     638
159.3800     614
159.4000     582
159.4200     560
159.4400     611
159.4600     676
159.4800     668
159.5000     627
159.5200     573
159.5400     523
159.5600     528
159.5800     565
159.6000     657
159.6200     751
159.6400     745
159.6600     699
159.6800     655
159.7000     624
159.7200     661
159.7400     707
159.7600     663
159.7800     597
159.8000     598
159.8200     621
159.8400     622
159.8600     619
159.8800     639
159.9000     669
159.9200     699
159.9400     724
159.9600     723
159.9800     705
160.0000     660
160.0200     610
160.0400     587
160.0600     589
160.0800     664
160.1000     741
160.1200     683
160.1400     594
160.1600     618
160.1800     683
160.2000     722
160.2200     739
160.2400     701
160.2600     644
160.2800     603
160.3000     579
160.3200     604
160.3400     635
160.3600     604
160.3800     557
160.4000     555
160.4200     567
160.4400     557
160.4600     548
160.4800     581
160.5000     619
160.5200     600
160.5400     571
160.5600     602
160.5800     647
160.6000     637
160.6200     611
160.6400     612
160.6600     629
160.6800     676
160.7000     714
160.7200     654
160.7400     577
160.7600     620
160.7800     690
160.8000     663
160.8200     610
160.8400     617
160.8600     643
160.8800     641
160.9000     629
160.9200     630
160.9400     631
160.9600     602
160.9800     565
161.0000     545
161.0200     533
161.0400     533
161.0600     539
161.0800     558
161.1000     579
161.1200     582
161.1400     583
161.1600     614
161.1800     647
161.2000     633
161.2200     595
161.2400     527
161.2600     467
161.2800     507
161.3000     573
161.3200     571
161.3400     552
161.3600     586
161.3800     630
161.4000     611
161.4200     575
161.4400     580
161.4600     595
161.4800     572
161.5000     542
161.5200     555
161.5400     581
161.5600     586
161.5800     579
161.6000     560
161.6200     537
161.6400     517
161.6600     507
161.6800     537
161.7000     576
161.7200     577
161.7400     562
161.7600     544
161.7800     525
161.8000     512
161.8200     506
161.8400     520
161.8600     545
161.8800     582
161.9000     614
161.9200     598
161.9400     566
161.9600     555
161.9800     558