File: XRD_Tool/XRD_Tool/bin/Debug/LDA_sample_name_56789_Psi-0_20180603-112316.txt
137.2000     251
137.2400     235
137.2800     245
137.3200     255
137.3600     242
137.4000     234
137.4400     276
137.4800     266
137.5200     249
137.5600     242
137.6000     268
137.6400     268
137.6800     269
137.7200     260
137.7600     249
137.8000     255
137.8400     265
137.8800     262
137.9200     263
137.9600     243
138.0000     251
138.0400     258
138.0800     269
138.1200     244
138.1600     245
138.2000     251
138.2400     275
138.2800     232
138.3200     293
138.3600     249
138.4000     264
138.4400     247
138.4800     257
138.5200     255
138.5600     270
138.6000     251
138.6400     261
138.6800     259
138.7200     243
138.7600     257
138.8000     239
138.8400     284
138.8800     276
138.9200     259
138.9600     243
139.0000     251
139.0400     260
139.0800     265
139.1200     253
139.1600     273
139.2000     266
139.2400     246
139.2800     279
139.3200     260
139.3600     237
139.4000     269
139.4400     237
139.4800     233
139.5200     272
139.5600     273
139.6000     247
139.6400     300
139.6800     259
139.7200     247
139.7600     269
139.8000     225
139.8400     262
139.8800     275
139.9200     265
139.9600     249
140.0000     259
140.0400     236
140.0800     260
140.1200     279
140.1600     257
140.2000     252
140.2400     252
140.2800     260
140.3200     254
140.3600     274
140.4000     261
140.4400     260
140.4800     250
140.5200     246
140.5600     241
140.6000     253
140.6400     243
140.6800     263
140.7200     254
140.7600     217
140.8000     238
140.8400     281
140.8800     269
140.9200     255
140.9600     264
141.0000     259
141.0400     248
141.0800     253
141.1200     270
141.1600     235
141.2000     285
141.2400     249
141.2800     264
141.3200     246
141.3600     260
141.4000     256
141.4400     259
141.4800     256
141.5200     253
141.5600     246
141.6000     281
141.6400     272
141.6800     231
141.7200     272
141.7600     273
141.8000     220
141.8400     229
141.8800     271
141.9200     254
141.9600     274
142.0000     274
142.0400     246
142.0800     255
142.1200     259
142.1600     251
142.2000     266
142.2400     249
142.2800     253
142.3200     279
142.3600     240
142.4000     275
142.4400     283
142.4800     252
142.5200     274
142.5600     263
142.6000     279
142.6400     229
142.6800     289
142.7200     262
142.7600     271
142.8000     269
142.8400     257
142.8800     274
142.9200     266
142.9600     276
143.0000     251
143.0400     264
143.0800     278
143.1200     274
143.1600     267
143.2000     270
143.2400     274
143.2800     278
143.3200     277
143.3600     264
143.4000     294
143.4400     285
143.4800     271
143.5200     274
143.5600     258
143.6000     258
143.6400     262
143.6800     289
143.7200     237
143.7600     246
143.8000     251
143.8400     277
143.8800     286
143.9200     256
143.9600     258
144.0000     230
144.0400     240
144.0800     298
144.1200     252
144.1600     280
144.2000     244
144.2400     264
144.2800     283
144.3200     284
144.3600     266
144.4000     249
144.4400     298
144.4800     270
144.5200     297
144.5600     249
144.6000     286
144.6400     252
144.6800     271
144.7200     269
144.7600     286
144.8000     246
144.8400     293
144.8800     245
144.9200     279
144.9600     269
145.0000     275
145.0400     304
145.0800     293
145.1200     299
145.1600     271
145.2000     280
145.2400     271
145.2800     288
145.3200     249
145.3600     252
145.4000     281
145.4400     273
145.4800     250
145.5200     261
145.5600     299
145.6000     289
145.6400     258
145.6800     275
145.7200     297
145.7600     301
145.8000     279
145.8400     256
145.8800     262
145.9200     247
145.9600     285
146.0000     294
146.0400     265
146.0800     259
146.1200     272
146.1600     255
146.2000     250
146.2400     285
146.2800     274
146.3200     277
146.3600     293
146.4000     315
146.4400     288
146.4800     282
146.5200     267
146.5600     272
146.6000     294
146.6400     248
146.6800     243
146.7200     286
146.7600     270
146.8000     252
146.8400     313
146.8800     283
146.9200     301
146.9600     280
147.0000     272
147.0400     276
147.0800     256
147.1200     273
147.1600     260
147.2000     249
147.2400     250
147.2800     280
147.3200     279
147.3600     280
147.4000     260
147.4400     270
147.4800     262
147.5200     295
147.5600     277
147.6000     282
147.6400     243
147.6800     282
147.7200     305
147.7600     325
147.8000     263
147.8400     297
147.8800     296
147.9200     272
147.9600     294
148.0000     278
148.0400     313
148.0800     280
148.1200     251
148.1600     285
148.2000     298
148.2400     289
148.2800     267
148.3200     328
148.3600     289
148.4000     256
148.4400     296
148.4800     290
148.5200     267
148.5600     289
148.6000     251
148.6400     291
148.6800     288
148.7200     315
148.7600     288
148.8000     259
148.8400     290
148.8800     295
148.9200     260
148.9600     282
149.0000     279
149.0400     254
149.0800     302
149.1200     296
149.1600     293
149.2000     272
149.2400     278
149.2800     302
149.3200     282
149.3600     287
149.4000     289
149.4400     288
149.4800     272
149.5200     320
149.5600     273
149.6000     289
149.6400     322
149.6800     314
149.7200     306
149.7600     304
149.8000     329
149.8400     293
149.8800     298
149.9200     273
149.9600     295
150.0000     293
150.0400     320
150.0800     321
150.1200     295
150.1600     305
150.2000     324
150.2400     303
150.2800     311
150.3200     299
150.3600     353
150.4000     312
150.4400     319
150.4800     322
150.5200     334
150.5600     319
150.6000     329
150.6400     321
150.6800     324
150.7200     308
150.7600     307
150.8000     321
150.8400     302
150.8800     311
150.9200     322
150.9600     322
151.0000     326
151.0400     317
151.0800     312
151.1200     322
151.1600     304
151.2000     292
151.2400     347
151.2800     360
151.3200     315
151.3600     388
151.4000     300
151.4400     343
151.4800     376
151.5200     333
151.5600     356
151.6000     340
151.6400     344
151.6800     350
151.7200     362
151.7600     372
151.8000     346
151.8400     374
151.8800     377
151.9200     370
151.9600     400
152.0000     421
152.0400     413
152.0800     398
152.1200     401
152.1600     388
152.2000     393
152.2400     367
152.2800     390
152.3200     398
152.3600     410
152.4000     408
152.4400     430
152.4800     412
152.5200     440
152.5600     433
152.6000     455
152.6400     487
152.6800     486
152.7200     461
152.7600     484
152.8000     467
152.8400     487
152.8800     479
152.9200     501
152.9600     520
153.0000     482
153.0400     536
153.0800     511
153.1200     577
153.1600     571
153.2000     562
153.2400     587
153.2800     581
153.3200     534
153.3600     545
153.4000     598
153.4400     591
153.4800     665
153.5200     562
153.5600     628
153.6000     687
153.6400     635
153.6800     645
153.7200     707
153.7600     682
153.8000     674
153.8400     704
153.8800     730
153.9200     706
153.9600     672
154.0000     669
154.0400     747
154.0800     683
154.1200     737
154.1600     694
154.2000     793
154.2400     769
154.2800     772
154.3200     699
154.3600     752
154.4000     794
154.4400     784
154.4800     753
154.5200     764
154.5600     821
154.6000     777
154.6400     750
154.6800     769
154.7200     813
154.7600     729
154.8000     701
154.8400     758
154.8800     725
154.9200     760
154.9600     774
155.0000     783
155.0400     753
155.0800     722
155.1200     689
155.1600     722
155.2000     676
155.2400     687
155.2800     684
155.3200     676
155.3600     717
155.4000     688
155.4400     652
155.4800     639
155.5200     643
155.5600     610
155.6000     624
155.6400     632
155.6800     601
155.7200     627
155.7600     614
155.8000     614
155.8400     607
155.8800     639
155.9200     600
155.9600     564
156.0000     576
156.0400     523
156.0800     542
156.1200     616
156.1600     510
156.2000     561
156.2400     524
156.2800     484
156.3200     514
156.3600     504
156.4000     478
156.4400     502
156.4800     485
156.5200     502
156.5600     496
156.6000     453
156.6400     471
156.6800     486
156.7200     466
156.7600     404
156.8000     427
156.8400     440
156.8800     394
156.9200     401
156.9600     444
157.0000     424
157.0400     370
157.0800     444
157.1200     391
157.1600     402
157.2000     397
157.2400     393
157.2800     404
157.3200     404
157.3600     390
157.4000     391
157.4400     373
157.4800     375
157.5200     357
157.5600     378
157.6000     402
157.6400     358
157.6800     403
157.7200     363
157.7600     370
157.8000     352
157.8400     397
157.8800     386
157.9200     364
157.9600     369
158.0000     352
158.0400     348
158.0800     339
158.1200     350
158.1600     358
158.2000     357
158.2400     340
158.2800     331
158.3200     373
158.3600     344
158.4000     318
158.4400     357
158.4800     299
158.5200     334
158.5600     362
158.6000     312
158.6400     334
158.6800     325
158.7200     325
158.7600     335
158.8000     281
158.8400     336
158.8800     341
158.9200     353
158.9600     292
159.0000     323
159.0400     313
159.0800     299
159.1200     312
159.1600     312
159.2000     326
159.2400     293
159.2800     299
159.3200     311
159.3600     318
159.4000     316
159.4400     301
159.4800     300
159.5200     289
159.5600     276
159.6000     262
159.6400     281
159.6800     272
159.7200     313
159.7600     312
159.8000     310
159.8400     295
159.8800     294
159.9200     301
159.9600     300
160.0000     263
160.0400     271
160.0800     293
160.1200     301
160.1600     299
160.2000     319
160.2400     299
160.2800     258
160.3200     273
160.3600     271
160.4000     295
160.4400     315
160.4800     263
160.5200     298
160.5600     288
160.6000     279
160.6400     294
160.6800     281
160.7200     280
160.7600     302
160.8000     278
160.8400     276
160.8800     309
160.9200     276
160.9600     290
161.0000     252
161.0400     274
161.0800     275
161.1200     275
161.1600     287
161.2000     273
161.2400     281
161.2800     305
161.3200     282
161.3600     285
161.4000     283
161.4400     256
161.4800     255
161.5200     280
161.5600     288
161.6000     265
161.6400     267
161.6800     286
161.7200     263
161.7600     304
161.8000     272
161.8400     272
161.8800     273
161.9200     293
161.9600     276
162.0000     260
162.0400     235
162.0800     267
162.1200     282
162.1600     264
162.2000     264
162.2400     256
162.2800     283
162.3200     274
162.3600     282
162.4000     263
162.4400     279
162.4800     232
162.5200     274
162.5600     249
162.6000     251
162.6400     274
162.6800     256
162.7200     260
162.7600     226