File: XRD_Tool/XRD_Tool/bin/Debug/LDA_sample_name_56789_Psi-0_20180623-123611.txt
138.0000     251
138.0200     256
138.0400     221
138.0600     178
138.0800     167
138.1000     172
138.1200     192
138.1400     216
138.1600     233
138.1800     244
138.2000     237
138.2200     236
138.2400     300
138.2600     375
138.2800     375
138.3000     347
138.3200     334
138.3400     323
138.3600     300
138.3800     268
138.4000     215
138.4200     165
138.4400     180
138.4600     218
138.4800     248
138.5000     268
138.5200     261
138.5400     243
138.5600     227
138.5800     211
138.6000     193
138.6200     185
138.6400     227
138.6600     277
138.6800     267
138.7000     238
138.7200     231
138.7400     228
138.7600     203
138.7800     180
138.8000     214
138.8200     265
138.8400     293
138.8600     297
138.8800     236
138.9000     164
138.9200     175
138.9400     211
138.9600     207
138.9800     193
139.0000     209
139.0200     229
139.0400     208
139.0600     177
139.0800     184
139.1000     206
139.1200     228
139.1400     249
139.1600     265
139.1800     277
139.2000     276
139.2200     268
139.2400     253
139.2600     233
139.2800     205
139.3000     188
139.3200     244
139.3400     309
139.3600     267
139.3800     195
139.4000     183
139.4200     197
139.4400     216
139.4600     226
139.4800     176
139.5000     117
139.5200     135
139.5400     174
139.5600     170
139.5800     157
139.6000     194
139.6200     238
139.6400     224
139.6600     198
139.6800     237
139.7000     279
139.7200     214
139.7400     123
139.7600     117
139.7800     143
139.8000     156
139.8200     168
139.8400     203
139.8600     250
139.8800     309
139.9000     361
139.9200     351
139.9400     311
139.9600     241
139.9800     176
140.0000     193
140.0200     235
140.0400     240
140.0600     232
140.0800     231
140.1000     230
140.1200     215
140.1400     200
140.1600     209
140.1800     228
140.2000     252
140.2200     277
140.2400     300
140.2600     320
140.2800     327
140.3000     318
140.3200     257
140.3400     188
140.3600     186
140.3800     205
140.4000     201
140.4200     189
140.4400     190
140.4600     195
140.4800     195
140.5000     194
140.5200     196
140.5400     206
140.5600     246
140.5800     288
140.6000     280
140.6200     251
140.6400     216
140.6600     182
140.6800     168
140.7000     168
140.7200     201
140.7400     237
140.7600     221
140.7800     199
140.8000     247
140.8200     308
140.8400     291
140.8600     255
140.8800     277
140.9000     317
140.9200     324
140.9400     315
140.9600     292
140.9800     272
141.0000     289
141.0200     309
141.0400     271
141.0600     220
141.0800     225
141.1000     255
141.1200     290
141.1400     316
141.1600     284
141.1800     238
141.2000     240
141.2200     261
141.2400     277
141.2600     291
141.2800     305
141.3000     318
141.3200     324
141.3400     318
141.3600     259
141.3800     194
141.4000     202
141.4200     231
141.4400     215
141.4600     186
141.4800     184
141.5000     195
141.5200     223
141.5400     246
141.5600     219
141.5800     191
141.6000     266
141.6200     351
141.6400     281
141.6600     165
141.6800     124
141.7000     126
141.7200     185
141.7400     255
141.7600     265
141.7800     251
141.8000     238
141.8200     235
141.8400     272
141.8600     312
141.8800     279
141.9000     220
141.9200     181
141.9400     163
141.9600     213
141.9800     278
142.0000     276
142.0200     251
142.0400     238
142.0600     229
142.0800     213
142.1000     200
142.1200     212
142.1400     232
142.1600     242
142.1800     252
142.2000     279
142.2200     305
142.2400     294
142.2600     274
142.2800     284
142.3000     299
142.3200     276
142.3400     242
142.3600     228
142.3800     228
142.4000     259
142.4200     302
142.4400     335
142.4600     360
142.4800     357
142.5000     336
142.5200     285
142.5400     245
142.5600     325
142.5800     421
142.6000     360
142.6200     257
142.6400     258
142.6600     296
142.6800     317
142.7000     318
142.7200     256
142.7400     184
142.7600     194
142.7800     231
142.8000     246
142.8200     254
142.8400     272
142.8600     286
142.8800     258
142.9000     234
142.9200     307
142.9400     403
142.9600     417
142.9800     401
143.0000     392
143.0200     375
143.0400     308
143.0600     230
143.0800     205
143.1000     207
143.1200     236
143.1400     275
143.1600     312
143.1800     336
143.2000     300
143.2200     253
143.2400     271
143.2600     310
143.2800     323
143.3000     322
143.3200     309
143.3400     297
143.3600     313
143.3800     331
143.4000     296
143.4200     253
143.4400     278
143.4600     326
143.4800     354
143.5000     366
143.5200     337
143.5400     301
143.5600     316
143.5800     343
143.6000     324
143.6200     294
143.6400     309
143.6600     331
143.6800     301
143.7000     261
143.7200     268
143.7400     284
143.7600     250
143.7800     204
143.8000     198
143.8200     214
143.8400     261
143.8600     308
143.8800     289
143.9000     253
143.9200     268
143.9400     303
143.9600     328
143.9800     351
144.0000     376
144.0200     390
144.0400     347
144.0600     297
144.0800     325
144.1000     372
144.1200     353
144.1400     310
144.1600     287
144.1800     274
144.2000     278
144.2200     292
144.2400     329
144.2600     364
144.2800     344
144.3000     306
144.3200     285
144.3400     271
144.3600     262
144.3800     257
144.4000     270
144.4200     290
144.4400     307
144.4600     329
144.4800     381
144.5000     436
144.5200     444
144.5400     426
144.5600     370
144.5800     303
144.6000     263
144.6200     249
144.6400     320
144.6600     395
144.6800     327
144.7000     221
144.7200     218
144.7400     252
144.7600     264
144.7800     270
144.8000     281
144.8200     302
144.8400     355
144.8600     407
144.8800     390
144.9000     347
144.9200     304
144.9400     269
144.9600     271
144.9800     287
145.0000     306
145.0200     317
145.0400     280
145.0600     236
145.0800     252
145.1000     290
145.1200     320
145.1400     337
145.1600     309
145.1800     272
145.2000     283
145.2200     308
145.2400     306
145.2600     297
145.2800     302
145.3000     309
145.3200     301
145.3400     281
145.3600     234
145.3800     190
145.4000     216
145.4200     262
145.4400     265
145.4600     256
145.4800     273
145.5000     294
145.5200     279
145.5400     257
145.5600     276
145.5800     312
145.6000     345
145.6200     369
145.6400     353
145.6600     327
145.6800     333
145.7000     353
145.7200     383
145.7400     412
145.7600     416
145.7800     397
145.8000     313
145.8200     221
145.8400     220
145.8600     253
145.8800     271
145.9000     280
145.9200     271
145.9400     252
145.9600     221
145.9800     197
146.0000     232
146.0200     287
146.0400     330
146.0600     352
146.0800     294
146.1000     223
146.1200     249
146.1400     302
146.1600     303
146.1800     288
146.2000     297
146.2200     312
146.2400     315
146.2600     317
146.2800     339
146.3000     359
146.3200     326
146.3400     288
146.3600     333
146.3800     387
146.4000     318
146.4200     228
146.4400     281
146.4600     371
146.4800     359
146.5000     313
146.5200     294
146.5400     279
146.5600     229
146.5800     182
146.6000     220
146.6200     280
146.6400     280
146.6600     263
146.6800     284
146.7000     318
146.7200     339
146.7400     344
146.7600     296
146.7800     244
146.8000     283
146.8200     342
146.8400     313
146.8600     263
146.8800     283
146.9000     325
146.9200     337
146.9400     335
146.9600     323
146.9800     309
147.0000     303
147.0200     299
147.0400     282
147.0600     269
147.0800     304
147.1000     350
147.1200     353
147.1400     342
147.1600     346
147.1800     353
147.2000     350
147.2200     337
147.2400     299
147.2600     263
147.2800     287
147.3000     325
147.3200     316
147.3400     296
147.3600     316
147.3800     342
147.4000     318
147.4200     279
147.4400     265
147.4600     274
147.4800     343
147.5000     427
147.5200     459
147.5400     468
147.5600     462
147.5800     451
147.6000     444
147.6200     436
147.6400     419
147.6600     402
147.6800     395
147.7000     392
147.7200     381
147.7400     372
147.7600     389
147.7800     410
147.8000     391
147.8200     359
147.8400     335
147.8600     315
147.8800     292
147.9000     282
147.9200     340
147.9400     413
147.9600     423
147.9800     411
148.0000     419
148.0200     437
148.0400     463
148.0600     482
148.0800     443
148.1000     389
148.1200     378
148.1400     379
148.1600     355
148.1800     336
148.2000     394
148.2200     463
148.2400     435
148.2600     374
148.2800     335
148.3000     316
148.3200     353
148.3400     410
148.3600     449
148.3800     469
148.4000     429
148.4200     380
148.4400     404
148.4600     439
148.4800     377
148.5000     296
148.5200     307
148.5400     355
148.5600     405
148.5800     450
148.6000     470
148.6200     484
148.6400     518
148.6600     545
148.6800     500
148.7000     429
148.7200     373
148.7400     328
148.7600     305
148.7800     295
148.8000     306
148.8200     321
148.8400     311
148.8600     303
148.8800     350
148.9000     400
148.9200     352
148.9400     279
148.9600     281
148.9800     312
149.0000     340
149.0200     363
149.0400     374
149.0600     377
149.0800     365
149.1000     354
149.1200     375
149.1400     396
149.1600     357
149.1800     309
149.2000     341
149.2200     398
149.2400     420
149.2600     429
149.2800     445
149.3000     456
149.3200     435
149.3400     411
149.3600     437
149.3800     481
149.4000     513
149.4200     527
149.4400     471
149.4600     401
149.4800     396
149.5000     410
149.5200     381
149.5400     352
149.5600     408
149.5800     483
149.6000     483
149.6200     454
149.6400     435
149.6600     423
149.6800     429
149.7000     431
149.7200     375
149.7400     319
149.7600     383
149.7800     477
149.8000     479
149.8200     445
149.8400     409
149.8600     390
149.8800     453
149.9000     528
149.9200     496
149.9400     436
149.9600     448
149.9800     483
150.0000     491
150.0200     490
150.0400     491
150.0600     485
150.0800     442
150.1000     396
150.1200     412
150.1400     444
150.1600     436
150.1800     417
150.2000     425
150.2200     442
150.2400     457
150.2600     470
150.2800     478
150.3000     481
150.3200     467
150.3400     452
150.3600     462
150.3800     488
150.4000     539
150.4200     598
150.4400     639
150.4600     654
150.4800     574
150.5000     484
150.5200     534
150.5400     616
150.5600     579
150.5800     517
150.6000     560
150.6200     625
150.6400     585
150.6600     517
150.6800     516
150.7000     540
150.7200     554
150.7400     560
150.7600     549
150.7800     535
150.8000     539
150.8200     553
150.8400     572
150.8600     592
150.8800     600
150.9000     603
150.9200     601
150.9400     607
150.9600     662
150.9800     709
151.0000     622
151.0200     503
151.0400     486
151.0600     508
151.0800     523
151.1000     541
151.1200     584
151.1400     628
151.1600     620
151.1800     592
151.2000     561
151.2200     555
151.2400     677
151.2600     811
151.2800     743
151.3000     613
151.3200     573
151.3400     587
151.3600     691
151.3800     811
151.4000     828
151.4200     799
151.4400     748
151.4600     689
151.4800     630
151.5000     602
151.5200     722
151.5400     863
151.5600     809
151.5800     704
151.6000     733
151.6200     799
151.6400     790
151.6600     761
151.6800     787
151.7000     827
151.7200     827
151.7400     817
151.7600     839
151.7800     865
151.8000     851
151.8200     819
151.8400     777
151.8600     741
151.8800     760
151.9000     799
151.9200     831
151.9400     862
151.9600     895
151.9800     921
152.0000     908
152.0200     888
152.0400     908
152.0600     932
152.0800     896
152.1000     856
152.1200     913
152.1400     991
152.1600     977
152.1800     938
152.2000     956
152.2200     987
152.2400     973
152.2600     953
152.2800     993
152.3000    1056
152.3200    1114
152.3400    1166
152.3600    1200
152.3800    1226
152.4000    1255
152.4200    1278
152.4400    1268
152.4600    1242
152.4800    1209
152.5000    1189
152.5200    1244
152.5400    1325
152.5600    1381
152.5800    1425
152.6000    1456
152.6200    1482
152.6400    1508
152.6600    1521
152.6800    1469
152.7000    1407
152.7200    1425
152.7400    1477
152.7600    1542
152.7800    1608
152.8000    1654
152.8200    1687
152.8400    1695
152.8600    1690
152.8800    1670
152.9000    1656
152.9200    1704
152.9400    1757
152.9600    1717
152.9800    1661
153.0000    1715
153.0200    1794
153.0400    1779
153.0600    1741
153.0800    1773
153.1000    1840
153.1200    1937
153.1400    2033
153.1600    2056
153.1800    2056
153.2000    2091
153.2200    2136
153.2400    2168
153.2600    2172
153.2800    2066
153.3000    1951
153.3200    2011
153.3400    2128
153.3600    2185
153.3800    2212
153.4000    2216
153.4200    2202
153.4400    2148
153.4600    2098
153.4800    2151
153.5000    2242
153.5200    2320
153.5400    2398
153.5600    2504
153.5800    2597
153.6000    2567
153.6200    2501
153.6400    2503
153.6600    2530
153.6800    2540
153.7000    2546
153.7200    2561
153.7400    2586
153.7600    2647
153.7800    2709
153.8000    2696
153.8200    2669
153.8400    2717
153.8600    2765
153.8800    2661
153.9000    2544
153.9200    2661
153.9400    2825
153.9600    2760
153.9800    2624
154.0000    2585
154.0200    2576
154.0400    2522
154.0600    2476
154.0800    2558
154.1000    2670
154.1200    2672
154.1400    2647
154.1600    2709
154.1800    2783
154.2000    2749
154.2200    2681
154.2400    2664
154.2600    2662
154.2800    2630
154.3000    2583
154.3200    2518
154.3400    2455
154.3600    2440
154.3800    2453
154.4000    2511
154.4200    2570
154.4400    2539
154.4600    2493
154.4800    2545
154.5000    2630
154.5200    2680
154.5400    2688
154.5600    2551
154.5800    2390
154.6000    2394
154.6200    2445
154.6400    2403
154.6600    2355
154.6800    2467
154.7000    2594
154.7200    2479
154.7400    2291
154.7600    2220
154.7800    2203
154.8000    2224
154.8200    2247
154.8400    2200
154.8600    2151
154.8800    2225
154.9000    2344
154.9200    2435
154.9400    2485
154.9600    2387
154.9800    2253
155.0000    2240
155.0200    2258
155.0400    2185
155.0600    2074
155.0800    1963
155.1000    1864
155.1200    1832
155.1400    1841
155.1600    1928
155.1800    2009
155.2000    1905
155.2200    1759
155.2400    1773
155.2600    1829
155.2800    1773
155.3000    1691
155.3200    1696
155.3400    1743
155.3600    1825
155.3800    1884
155.4000    1761
155.4200    1604
155.4400    1642
155.4600    1735
155.4800    1712
155.5000    1640
155.5200    1563
155.5400    1497
155.5600    1504
155.5800    1523
155.6000    1452
155.6200    1364
155.6400    1364
155.6600    1398
155.6800    1419
155.7000    1430
155.7200    1416
155.7400    1387
155.7600    1336
155.7800    1287
155.8000    1290
155.8200    1322
155.8400    1397
155.8600    1452
155.8800    1319
155.9000    1167
155.9200    1293
155.9400    1486
155.9600    1452
155.9800    1331
156.0000    1224
156.0200    1140
156.0400    1151
156.0600    1188
156.0800    1173
156.1000    1135
156.1200    1082
156.1400    1051
156.1600    1152
156.1800    1274
156.2000    1241
156.2200    1160
156.2400    1152
156.2600    1161
156.2800    1103
156.3000    1031
156.3200    1019
156.3400    1022
156.3600     979
156.3800     929
156.4000     940
156.4200     971
156.4400     974
156.4600     967
156.4800     963
156.5000     952
156.5200     894
156.5400     831
156.5600     830
156.5800     852
156.6000     866
156.6200     874
156.6400     872
156.6600     861
156.6800     830
156.7000     795
156.7200     787
156.7400     790
156.7600     798
156.7800     815
156.8000     867
156.8200     920
156.8400     911
156.8600     880
156.8800     862
156.9000     837
156.9200     742
156.9400     641
156.9600     642
156.9800     673
157.0000     654
157.0200     620
157.0400     614
157.0600     624
157.0800     656
157.1000     690
157.1200     694
157.1400     688
157.1600     694
157.1800     697
157.2000     668
157.2200     638
157.2400     665
157.2600     707
157.2800     712
157.3000     699
157.3200     669
157.3400     646
157.3600     687
157.3800     732
157.4000     672
157.4200     590
157.4400     609
157.4600     656
157.4800     635
157.5000     599
157.5200     625
157.5400     665
157.5600     658
157.5800     637
157.6000     643
157.6200     663
157.6400     705
157.6600     741
157.6800     712
157.7000     671
157.7200     708
157.7400     756
157.7600     703
157.7800     615
157.8000     558
157.8200     523
157.8400     532
157.8600     550
157.8800     528
157.9000     492
157.9200     466
157.9400     459
157.9600     527
157.9800     616
158.0000     663
158.0200     684
158.0400     660
158.0600     619
158.0800     581
158.1000     558
158.1200     597
158.1400     640
158.1600     581
158.1800     487
158.2000     420
158.2200     380
158.2400     418
158.2600     479
158.2800     495
158.3000     489
158.3200     461
158.3400     442
158.3600     503
158.3800     576
158.4000     546
158.4200     473
158.4400     395
158.4600     330
158.4800     343
158.5000     387
158.5200     431
158.5400     471
158.5600     490
158.5800     489
158.6000     433
158.6200     373
158.6400     404
158.6600     466
158.6800     497
158.7000     501
158.7200     436
158.7400     360
158.7600     361
158.7800     393
158.8000     428
158.8200     460
158.8400     472
158.8600     479
158.8800     501
158.9000     522
158.9200     508
158.9400     488
158.9600     507
158.9800     528
159.0000     485
159.0200     428
159.0400     426
159.0600     440
159.0800     424
159.1000     399
159.1200     388
159.1400     382
159.1600     376
159.1800     375
159.2000     399
159.2200     426
159.2400     418
159.2600     403
159.2800     428
159.3000     463
159.3200     475
159.3400     468
159.3600     416
159.3800     354
159.4000     335
159.4200     337
159.4400     359
159.4600     374
159.4800     314
159.5000     244
159.5200     271
159.5400     337
159.5600     408
159.5800     472
159.6000     498
159.6200     496
159.6400     439
159.6600     365
159.6800     324
159.7000     311
159.7200     368
159.7400     433
159.7600     395
159.7800     325
159.8000     307
159.8200     317
159.8400     372
159.8600     430
159.8800     416
159.9000     382
159.9200     386
159.9400     407
159.9600     430
159.9800     439
160.0000     371
160.0200     291
160.0400     298
160.0600     352
160.0800     469
160.1000     582
160.1200     547
160.1400     458
160.1600     395
160.1800     351
160.2000     344
160.2200     355
160.2400     379
160.2600     407
160.2800     423
160.3000     425
160.3200     374
160.3400     322
160.3600     372
160.3800     438
160.4000     389
160.4200     307
160.4400     297
160.4600     315
160.4800     336
160.5000     360
160.5200     392
160.5400     414
160.5600     365
160.5800     301
160.6000     307
160.6200     332
160.6400     315
160.6600     293
160.6800     333
160.7000     392
160.7200     428
160.7400     443
160.7600     406
160.7800     361
160.8000     378
160.8200     410
160.8400     395
160.8600     353
160.8800     269
160.9000     193
160.9200     236
160.9400     307
160.9600     284
160.9800     239
161.0000     266
161.0200     321
161.0400     374
161.0600     410
161.0800     363
161.1000     297
161.1200     301
161.1400     330
161.1600     347
161.1800     353
161.2000     329
161.2200     304
161.2400     334
161.2600     379
161.2800     384
161.3000     379
161.3200     397
161.3400     412
161.3600     361
161.3800     287
161.4000     233
161.4200     203
161.4400     256
161.4600     323
161.4800     297
161.5000     247
161.5200     270
161.5400     314
161.5600     313
161.5800     302
161.6000     328
161.6200     356
161.6400     324
161.6600     275
161.6800     263
161.7000     257
161.7200     211
161.7400     171
161.7600     241
161.7800     329
161.8000     292
161.8200     223
161.8400     251
161.8600     304
161.8800     297
161.9000     270
161.9200     270
161.9400     282
161.9600     305
161.9800     325