File: XRD_Tool/XRD_Tool/bin/Debug/LDA_sample_name_56789_Psi-24_20180622-235823.txt
141.0000     309
141.0200     265
141.0400     241
141.0600     237
141.0800     296
141.1000     358
141.1200     310
141.1400     235
141.1600     240
141.1800     264
141.2000     216
141.2200     159
141.2400     194
141.2600     252
141.2800     242
141.3000     214
141.3200     239
141.3400     279
141.3600     287
141.3800     278
141.4000     239
141.4200     199
141.4400     206
141.4600     225
141.4800     212
141.5000     191
141.5200     197
141.5400     216
141.5600     253
141.5800     288
141.6000     277
141.6200     246
141.6400     215
141.6600     196
141.6800     240
141.7000     297
141.7200     291
141.7400     265
141.7600     272
141.7800     291
141.8000     300
141.8200     303
141.8400     288
141.8600     268
141.8800     259
141.9000     251
141.9200     223
141.9400     198
141.9600     228
141.9800     268
142.0000     247
142.0200     208
142.0400     209
142.0600     230
142.0800     274
142.1000     321
142.1200     330
142.1400     319
142.1600     284
142.1800     240
142.2000     193
142.2200     163
142.2400     226
142.2600     308
142.2800     297
142.3000     251
142.3200     213
142.3400     180
142.3600     154
142.3800     138
142.4000     162
142.4200     197
142.4400     210
142.4600     210
142.4800     187
142.5000     160
142.5200     156
142.5400     169
142.5600     217
142.5800     268
142.6000     266
142.6200     249
142.6400     269
142.6600     293
142.6800     267
142.7000     225
142.7200     206
142.7400     199
142.7600     209
142.7800     225
142.8000     239
142.8200     257
142.8400     292
142.8600     327
142.8800     332
142.9000     326
142.9200     328
142.9400     331
142.9600     316
142.9800     296
143.0000     286
143.0200     273
143.0400     225
143.0600     171
143.0800     158
143.1000     176
143.1200     259
143.1400     343
143.1600     294
143.1800     207
143.2000     198
143.2200     218
143.2400     230
143.2600     249
143.2800     321
143.3000     399
143.3200     399
143.3400     364
143.3600     317
143.3800     276
143.4000     287
143.4200     320
143.4400     358
143.4600     385
143.4800     350
143.5000     296
143.5200     269
143.5400     264
143.5600     312
143.5800     364
143.6000     328
143.6200     267
143.6400     264
143.6600     283
143.6800     297
143.7000     310
143.7200     325
143.7400     331
143.7600     285
143.7800     232
143.8000     244
143.8200     271
143.8400     241
143.8600     195
143.8800     176
143.9000     182
143.9200     261
143.9400     343
143.9600     290
143.9800     203
144.0000     213
144.0200     251
144.0400     241
144.0600     221
144.0800     252
144.1000     299
144.1200     320
144.1400     322
144.1600     287
144.1800     246
144.2000     252
144.2200     275
144.2400     296
144.2600     309
144.2800     282
144.3000     254
144.3200     296
144.3400     355
144.3600     359
144.3800     335
144.4000     279
144.4200     230
144.4400     276
144.4600     342
144.4800     318
144.5000     277
144.5200     326
144.5400     397
144.5600     390
144.5800     344
144.6000     263
144.6200     193
144.6400     256
144.6600     348
144.6800     319
144.7000     247
144.7200     205
144.7400     184
144.7600     208
144.7800     240
144.8000     225
144.8200     205
144.8400     257
144.8600     321
144.8800     303
144.9000     261
144.9200     259
144.9400     285
144.9600     369
144.9800     455
145.0000     430
145.0200     363
145.0400     311
145.0600     276
145.0800     299
145.1000     335
145.1200     318
145.1400     284
145.1600     273
145.1800     277
145.2000     308
145.2200     335
145.2400     287
145.2600     225
145.2800     244
145.3000     289
145.3200     299
145.3400     295
145.3600     290
145.3800     285
145.4000     285
145.4200     294
145.4400     338
145.4600     378
145.4800     329
145.5000     267
145.5200     312
145.5400     390
145.5600     418
145.5800     418
145.6000     380
145.6200     333
145.6400     322
145.6600     335
145.6800     390
145.7000     449
145.7200     446
145.7400     414
145.7600     362
145.7800     301
145.8000     234
145.8200     177
145.8400     188
145.8600     229
145.8800     287
145.9000     340
145.9200     341
145.9400     324
145.9600     321
145.9800     333
146.0000     395
146.0200     457
146.0400     422
146.0600     352
146.0800     304
146.1000     278
146.1200     322
146.1400     381
146.1600     373
146.1800     343
146.2000     331
146.2200     324
146.2400     299
146.2600     273
146.2800     275
146.3000     294
146.3200     338
146.3400     388
146.3600     415
146.3800     424
146.4000     391
146.4200     344
146.4400     312
146.4600     302
146.4800     372
146.5000     462
146.5200     489
146.5400     479
146.5600     410
146.5800     332
146.6000     323
146.6200     343
146.6400     374
146.6600     399
146.6800     369
146.7000     322
146.7200     297
146.7400     284
146.7600     286
146.7800     293
146.8000     297
146.8200     302
146.8400     322
146.8600     336
146.8800     295
146.9000     245
146.9200     263
146.9400     304
146.9600     318
146.9800     319
147.0000     302
147.0200     292
147.0400     355
147.0600     431
147.0800     424
147.1000     383
147.1200     335
147.1400     301
147.1600     349
147.1800     416
147.2000     421
147.2200     398
147.2400     360
147.2600     323
147.2800     318
147.3000     329
147.3200     357
147.3400     379
147.3600     346
147.3800     300
147.4000     304
147.4200     322
147.4400     308
147.4600     287
147.4800     293
147.5000     300
147.5200     260
147.5400     218
147.5600     258
147.5800     322
147.6000     348
147.6200     348
147.6400     301
147.6600     261
147.6800     349
147.7000     457
147.7200     405
147.7400     314
147.7600     348
147.7800     416
147.8000     401
147.8200     364
147.8400     385
147.8600     418
147.8800     395
147.9000     353
147.9200     331
147.9400     323
147.9600     345
147.9800     378
148.0000     409
148.0200     431
148.0400     413
148.0600     384
148.0800     378
148.1000     392
148.1200     456
148.1400     517
148.1600     458
148.1800     372
148.2000     383
148.2200     419
148.2400     385
148.2600     334
148.2800     338
148.3000     363
148.3200     386
148.3400     401
148.3600     379
148.3800     350
148.4000     353
148.4200     368
148.4400     381
148.4600     390
148.4800     381
148.5000     359
148.5200     310
148.5400     267
148.5600     306
148.5800     372
148.6000     410
148.6200     434
148.6400     453
148.6600     456
148.6800     392
148.7000     328
148.7200     396
148.7400     492
148.7600     470
148.7800     409
148.8000     394
148.8200     396
148.8400     387
148.8600     373
148.8800     359
148.9000     349
148.9200     364
148.9400     388
148.9600     414
148.9800     431
149.0000     406
149.0200     366
149.0400     333
149.0600     306
149.0800     299
149.1000     304
149.1200     332
149.1400     370
149.1600     405
149.1800     431
149.2000     422
149.2200     394
149.2400     348
149.2600     310
149.2800     355
149.3000     418
149.3200     404
149.3400     373
149.3600     406
149.3800     455
149.4000     459
149.4200     444
149.4400     427
149.4600     414
149.4800     423
149.5000     444
149.5200     481
149.5400     508
149.5600     447
149.5800     371
149.6000     398
149.6200     452
149.6400     431
149.6600     393
149.6800     415
149.7000     445
149.7200     395
149.7400     330
149.7600     347
149.7800     387
149.8000     380
149.8200     364
149.8400     398
149.8600     433
149.8800     375
149.9000     294
149.9200     291
149.9400     327
149.9600     398
149.9800     464
150.0000     430
150.0200     371
150.0400     384
150.0600     427
150.0800     476
150.1000     513
150.1200     475
150.1400     425
150.1600     465
150.1800     521
150.2000     474
150.2200     398
150.2400     385
150.2600     402
150.2800     439
150.3000     478
150.3200     482
150.3400     475
150.3600     483
150.3800     493
150.4000     485
150.4200     474
150.4400     491
150.4600     512
150.4800     495
150.5000     473
150.5200     503
150.5400     541
150.5600     522
150.5800     484
150.6000     466
150.6200     461
150.6400     479
150.6600     506
150.6800     523
150.7000     537
150.7200     553
150.7400     573
150.7600     611
150.7800     646
150.8000     623
150.8200     582
150.8400     569
150.8600     567
150.8800     562
150.9000     553
150.9200     529
150.9400     508
150.9600     537
150.9800     575
151.0000     566
151.0200     539
151.0400     517
151.0600     509
151.0800     558
151.1000     611
151.1200     567
151.1400     507
151.1600     555
151.1800     631
151.2000     624
151.2200     591
151.2400     591
151.2600     605
151.2800     616
151.3000     628
151.3200     651
151.3400     682
151.3600     725
151.3800     755
151.4000     695
151.4200     615
151.4400     618
151.4600     656
151.4800     699
151.5000     741
151.5200     761
151.5400     776
151.5600     806
151.5800     836
151.6000     831
151.6200     809
151.6400     767
151.6600     720
151.6800     686
151.7000     670
151.7200     713
151.7400     766
151.7600     759
151.7800     739
151.8000     779
151.8200     837
151.8400     865
151.8600     875
151.8800     858
151.9000     829
151.9200     790
151.9400     764
151.9600     815
151.9800     888
152.0000     919
152.0200     931
152.0400     935
152.0600     928
152.0800     884
152.1000     838
152.1200     849
152.1400     879
152.1600     890
152.1800     900
152.2000     940
152.2200     983
152.2400     981
152.2600     968
152.2800     985
152.3000    1003
152.3200     963
152.3400     919
152.3600     975
152.3800    1065
152.4000    1123
152.4200    1164
152.4400    1178
152.4600    1180
152.4800    1167
152.5000    1155
152.5200    1171
152.5400    1201
152.5600    1238
152.5800    1270
152.6000    1264
152.6200    1244
152.6400    1235
152.6600    1238
152.6800    1276
152.7000    1321
152.7200    1328
152.7400    1327
152.7600    1363
152.7800    1407
152.8000    1424
152.8200    1431
152.8400    1443
152.8600    1460
152.8800    1490
152.9000    1515
152.9200    1485
152.9400    1440
152.9600    1429
152.9800    1433
153.0000    1448
153.0200    1476
153.0400    1541
153.0600    1613
153.0800    1643
153.1000    1667
153.1200    1743
153.1400    1817
153.1600    1779
153.1800    1720
153.2000    1774
153.2200    1861
153.2400    1882
153.2600    1885
153.2800    1933
153.3000    1981
153.3200    1944
153.3400    1876
153.3600    1828
153.3800    1811
153.4000    1909
153.4200    2030
153.4400    2038
153.4600    2014
153.4800    2065
153.5000    2126
153.5200    2094
153.5400    2043
153.5600    2092
153.5800    2166
153.6000    2170
153.6200    2142
153.6400    2097
153.6600    2059
153.6800    2086
153.7000    2148
153.7200    2248
153.7400    2347
153.7600    2361
153.7800    2337
153.8000    2293
153.8200    2253
153.8400    2270
153.8600    2295
153.8800    2248
153.9000    2185
153.9200    2184
153.9400    2223
153.9600    2340
153.9800    2462
154.0000    2451
154.0200    2415
154.0400    2519
154.0600    2624
154.0800    2457
154.1000    2233
154.1200    2266
154.1400    2402
154.1600    2538
154.1800    2642
154.2000    2584
154.2200    2496
154.2400    2575
154.2600    2696
154.2800    2697
154.3000    2659
154.3200    2673
154.3400    2681
154.3600    2560
154.3800    2435
154.4000    2542
154.4200    2719
154.4400    2781
154.4600    2780
154.4800    2697
154.5000    2584
154.5200    2483
154.5400    2427
154.5600    2574
154.5800    2756
154.6000    2703
154.6200    2580
154.6400    2570
154.6600    2590
154.6800    2530
154.7000    2451
154.7200    2432
154.7400    2433
154.7600    2407
154.7800    2357
154.8000    2234
154.8200    2126
154.8400    2240
154.8600    2397
154.8800    2329
154.9000    2214
154.9200    2317
154.9400    2482
154.9600    2522
154.9800    2497
155.0000    2397
155.0200    2277
155.0400    2205
155.0600    2164
155.0800    2177
155.1000    2211
155.1200    2250
155.1400    2261
155.1600    2129
155.1800    1980
155.2000    2041
155.2200    2163
155.2400    2173
155.2600    2133
155.2800    2061
155.3000    1999
155.3200    2047
155.3400    2120
155.3600    2098
155.3800    2049
155.4000    2050
155.4200    2056
155.4400    1984
155.4600    1886
155.4800    1818
155.5000    1777
155.5200    1813
155.5400    1861
155.5600    1820
155.5800    1757
155.6000    1756
155.6200    1784
155.6400    1834
155.6600    1860
155.6800    1731
155.7000    1582
155.7200    1646
155.7400    1772
155.7600    1775
155.7800    1727
155.8000    1672
155.8200    1623
155.8400    1617
155.8600    1632
155.8800    1662
155.9000    1693
155.9200    1696
155.9400    1682
155.9600    1636
155.9800    1591
156.0000    1609
156.0200    1638
156.0400    1587
156.0600    1522
156.0800    1539
156.1000    1563
156.1200    1457
156.1400    1312
156.1600    1233
156.1800    1208
156.2000    1317
156.2200    1440
156.2400    1371
156.2600    1247
156.2800    1233
156.3000    1253
156.3200    1223
156.3400    1188
156.3600    1228
156.3800    1279
156.4000    1235
156.4200    1175
156.4400    1225
156.4600    1295
156.4800    1245
156.5000    1162
156.5200    1154
156.5400    1171
156.5600    1165
156.5800    1150
156.6000    1138
156.6200    1123
156.6400    1083
156.6600    1038
156.6800    1018
156.7000    1004
156.7200     970
156.7400     935
156.7600     937
156.7800     951
156.8000     953
156.8200     953
156.8400     960
156.8600     970
156.8800     980
156.9000     982
156.9200     944
156.9400     887
156.9600     818
156.9800     755
157.0000     747
157.0200     759
157.0400     761
157.0600     772
157.0800     850
157.1000     934
157.1200     920
157.1400     875
157.1600     876
157.1800     886
157.2000     846
157.2200     795
157.2400     789
157.2600     805
157.2800     838
157.3000     866
157.3200     834
157.3400     782
157.3600     752
157.3800     733
157.4000     729
157.4200     720
157.4400     659
157.4600     598
157.4800     642
157.5000     717
157.5200     735
157.5400     732
157.5600     734
157.5800     735
157.6000     718
157.6200     690
157.6400     644
157.6600     594
157.6800     564
157.7000     553
157.7200     602
157.7400     661
157.7600     657
157.7800     635
157.8000     658
157.8200     690
157.8400     685
157.8600     664
157.8800     637
157.9000     613
157.9200     619
157.9400     630
157.9600     609
157.9800     583
158.0000     595
158.0200     623
158.0400     651
158.0600     672
158.0800     653
158.1000     620
158.1200     592
158.1400     560
158.1600     498
158.1800     451
158.2000     539
158.2200     658
158.2400     659
158.2600     623
158.2800     638
158.3000     666
158.3200     649
158.3400     620
158.3600     613
158.3800     607
158.4000     566
158.4200     521
158.4400     531
158.4600     566
158.4800     619
158.5000     649
158.5200     529
158.5400     389
158.5600     448
158.5800     565
158.6000     578
158.6200     549
158.6400     510
158.6600     485
158.6800     542
158.7000     602
158.7200     517
158.7400     407
158.7600     467
158.7800     567
158.8000     525
158.8200     449
158.8400     481
158.8600     538
158.8800     499
158.9000     438
158.9200     463
158.9400     508
158.9600     475
158.9800     422
159.0000     424
159.0200     450
159.0400     489
159.0600     520
159.0800     485
159.1000     427
159.1200     389
159.1400     371
159.1600     416
159.1800     468
159.2000     428
159.2200     369
159.2400     390
159.2600     441
159.2800     479
159.3000     509
159.3200     529
159.3400     530
159.3600     458
159.3800     377
159.4000     404
159.4200     467
159.4400     493
159.4600     503
159.4800     503
159.5000     501
159.5200     508
159.5400     513
159.5600     498
159.5800     476
159.6000     462
159.6200     457
159.6400     479
159.6600     501
159.6800     473
159.7000     430
159.7200     415
159.7400     412
159.7600     413
159.7800     415
159.8000     418
159.8200     417
159.8400     390
159.8600     356
159.8800     347
159.9000     353
159.9200     392
159.9400     445
159.9600     503
159.9800     543
160.0000     480
160.0200     388
160.0400     358
160.0600     360
160.0800     403
160.1000     453
160.1200     453
160.1400     429
160.1600     384
160.1800     339
160.2000     342
160.2200     370
160.2400     426
160.2600     481
160.2800     466
160.3000     431
160.3200     431
160.3400     435
160.3600     391
160.3800     342
160.4000     370
160.4200     417
160.4400     414
160.4600     388
160.4800     354
160.5000     317
160.5200     290
160.5400     270
160.5600     270
160.5800     289
160.6000     363
160.6200     444
160.6400     452
160.6600     439
160.6800     472
160.7000     509
160.7200     471
160.7400     414
160.7600     411
160.7800     424
160.8000     415
160.8200     398
160.8400     386
160.8600     387
160.8800     440
160.9000     493
160.9200     444
160.9400     371
160.9600     383
160.9800     419
161.0000     402
161.0200     376
161.0400     410
161.0600     452
161.0800     414
161.1000     360
161.1200     389
161.1400     448
161.1600     489
161.1800     507
161.2000     450
161.2200     371
161.2400     337
161.2600     320
161.2800     301
161.3000     289
161.3200     314
161.3400     348
161.3600     354
161.3800     349
161.4000     350
161.4200     357
161.4400     379
161.4600     397
161.4800     362
161.5000     320
161.5200     351
161.5400     400
161.5600     391
161.5800     361
161.6000     343
161.6200     334
161.6400     355
161.6600     386
161.6800     410
161.7000     426
161.7200     414
161.7400     389
161.7600     357
161.7800     332
161.8000     352
161.8200     383
161.8400     379
161.8600     357
161.8800     317
161.9000     280
161.9200     301
161.9400     339
161.9600     344
161.9800     339
162.0000     352
162.0200     366
162.0400     345
162.0600     314
162.0800     295
162.1000     284
162.1200     291
162.1400     313
162.1600     373
162.1800     435
162.2000     426
162.2200     395
162.2400     399
162.2600     409
162.2800     382
162.3000     344
162.3200     326
162.3400     315
162.3600     301
162.3800     292
162.4000     318
162.4200     352
162.4400     354
162.4600     343
162.4800     329
162.5000     318
162.5200     330
162.5400     345
162.5600     325
162.5800     298
162.6000     304
162.6200     328
162.6400     369
162.6600     412
162.6800     430
162.7000     432
162.7200     406
162.7400     367
162.7600     326
162.7800     286
162.8000     254
162.8200     235
162.8400     256
162.8600     296
162.8800     344
162.9000     385
162.9200     368
162.9400     340
162.9600     372
162.9800     413
163.0000     377
163.0200     322
163.0400     319
163.0600     332
163.0800     323
163.1000     302
163.1200     268
163.1400     237
163.1600     249
163.1800     275
163.2000     278
163.2200     267
163.2400     234
163.2600     204
163.2800     231
163.3000     275
163.3200     289
163.3400     298
163.3600     347
163.3800     391
163.4000     335
163.4200     259
163.4400     285
163.4600     335
163.4800     305
163.5000     260
163.5200     305
163.5400     361
163.5600     297
163.5800     215
163.6000     285
163.6200     392
163.6400     389
163.6600     349
163.6800     351
163.7000     364
163.7200     355
163.7400     335
163.7600     307
163.7800     276
163.8000     252
163.8200     233
163.8400     232
163.8600     236
163.8800     227
163.9000     223
163.9200     274
163.9400     332
163.9600     320
163.9800     284
164.0000     270
164.0200     269
164.0400     293
164.0600     327
164.0800     366
164.1000     391
164.1200     341
164.1400     265
164.1600     209
164.1800     181
164.2000     253
164.2200     342
164.2400     318
164.2600     253
164.2800     214
164.3000     190
164.3200     181
164.3400     188
164.3600     237
164.3800     285
164.4000     248
164.4200     187
164.4400     183
164.4600     205
164.4800     247
164.5000     295
164.5200     338
164.5400     361
164.5600     299
164.5800     221
164.6000     233
164.6200     273
164.6400     273
164.6600     256
164.6800     236
164.7000     215
164.7200     204
164.7400     195
164.7600     179
164.7800     168
164.8000     194
164.8200     231
164.8400     255
164.8600     262
164.8800     215
164.9000     169
164.9200     228
164.9400     310
164.9600     290
164.9800     237