File: XRD_Tool/XRD_Tool/bin/Debug/LDA_sample_name_56789_Psi-0_20180622-205646.txt
127.2000     -11
127.2400      -4
127.2800       9
127.3200      48
127.3600      77
127.4000      45
127.4400      18
127.4800      12
127.5200      34
127.5600      46
127.6000      16
127.6400       4
127.6800     -11
127.7200       9
127.7600      58
127.8000      38
127.8400      21
127.8800      18
127.9200       0
127.9600      -7
128.0000      -7
128.0400       7
128.0800       6
128.1200       9
128.1600      -5
128.2000     -30
128.2400      -8
128.2800       7
128.3200      -1
128.3600      17
128.4000      17
128.4400      38
128.4800      40
128.5200      41
128.5600      16
128.6000      -2
128.6400      37
128.6800      20
128.7200     -34
128.7600     -10
128.8000      78
128.8400      55
128.8800       0
128.9200      20
128.9600      24
129.0000      21
129.0400      18
129.0800      16
129.1200      21
129.1600      18
129.2000      15
129.2400      -3
129.2800       4
129.3200       6
129.3600      15
129.4000      12
129.4400     -16
129.4800       9
129.5200      11
129.5600       5
129.6000       3
129.6400      21
129.6800      41
129.7200      31
129.7600       5
129.8000      44
129.8400      65
129.8800      37
129.9200      23
129.9600      14
130.0000      23
130.0400      32
130.0800      38
130.1200      59
130.1600      34
130.2000       6
130.2400      24
130.2800       9
130.3200      18
130.3600      27
130.4000      33
130.4400       8
130.4800     -12
130.5200       1
130.5600      43
130.6000      35
130.6400     -26
130.6800     -18
130.7200      10
130.7600      15
130.8000      -3
130.8400       5
130.8800      21
130.9200      25
130.9600      53
131.0000      25
131.0400       5
131.0800      19
131.1200      37
131.1600       1
131.2000      -7
131.2400      17
131.2800      54
131.3200      41
131.3600      43
131.4000      30
131.4400      27
131.4800      46
131.5200      20
131.5600      16
131.6000      43
131.6400      24
131.6800       0
131.7200      49
131.7600      63
131.8000      29
131.8400      15
131.8800       9
131.9200     -21
131.9600      -7
132.0000      27
132.0400       4
132.0800       0
132.1200      17
132.1600      -2
132.2000     -24
132.2400       9
132.2800      16
132.3200      17
132.3600       0
132.4000      26
132.4400      61
132.4800      25
132.5200       5
132.5600      10
132.6000      54
132.6400      58
132.6800      32
132.7200      23
132.7600       4
132.8000      17
132.8400      22
132.8800      27
132.9200      58
132.9600      73
133.0000      89
133.0400      36
133.0800      10
133.1200      15
133.1600      10
133.2000       3
133.2400      19
133.2800      89
133.3200      74
133.3600      16
133.4000       0
133.4400      14
133.4800       4
133.5200      19
133.5600      52
133.6000      51
133.6400       8
133.6800      35
133.7200      47
133.7600      24
133.8000      25
133.8400       7
133.8800      27
133.9200      14
133.9600      47
134.0000      29
134.0400      35
134.0800      18
134.1200      -9
134.1600      10
134.2000      28
134.2400       5
134.2800     -17
134.3200      -4
134.3600     -15
134.4000      20
134.4400      48
134.4800      47
134.5200      35
134.5600      -7
134.6000      13
134.6400      -4
134.6800      29
134.7200      24
134.7600      50
134.8000      28
134.8400      10
134.8800      20
134.9200      14
134.9600      35
135.0000      63
135.0400      57
135.0800      66
135.1200      29
135.1600      36
135.2000      50
135.2400      30
135.2800      -5
135.3200      22
135.3600      33
135.4000      37
135.4400       8
135.4800      40
135.5200      35
135.5600      16
135.6000      14
135.6400      -8
135.6800       8
135.7200      43
135.7600      15
135.8000      26
135.8400       2
135.8800       7
135.9200      18
135.9600      15
136.0000       9
136.0400     -10
136.0800      28
136.1200      45
136.1600      40
136.2000      53
136.2400      24
136.2800      52
136.3200      79
136.3600      73
136.4000      34
136.4400      -6
136.4800      56
136.5200      30
136.5600      -2
136.6000      -2
136.6400      38
136.6800      53
136.7200      36
136.7600       7
136.8000      29
136.8400      53
136.8800      57
136.9200      91
136.9600      72
137.0000       0
137.0400      16
137.0800      55
137.1200      47
137.1600      19
137.2000       8
137.2400      23
137.2800      18
137.3200      57
137.3600      17
137.4000      36
137.4400      26
137.4800      24
137.5200      11
137.5600      43
137.6000      56
137.6400      52
137.6800      41
137.7200      46
137.7600      35
137.8000      23
137.8400      14
137.8800      28
137.9200      24
137.9600      11
138.0000      13
138.0400      11
138.0800      23
138.1200      17
138.1600      30
138.2000      58
138.2400      16
138.2800      22
138.3200      64
138.3600      42
138.4000       0
138.4400      23
138.4800      -3
138.5200     -14
138.5600      32
138.6000      20
138.6400      17
138.6800      50
138.7200      62
138.7600      38
138.8000      33
138.8400      19
138.8800       9
138.9200      44
138.9600      63
139.0000      42
139.0400      12
139.0800      32
139.1200      64
139.1600      75
139.2000      47
139.2400      12
139.2800      34
139.3200      10
139.3600      15
139.4000      35
139.4400       0
139.4800       1
139.5200       0
139.5600     -22
139.6000     -15
139.6400       7
139.6800      11
139.7200      23
139.7600      26
139.8000       9
139.8400      21
139.8800      41
139.9200      17
139.9600      12
140.0000      45
140.0400      22
140.0800       8
140.1200      63
140.1600      44
140.2000      32
140.2400      49
140.2800      40
140.3200      32
140.3600      30
140.4000      -8
140.4400      -6
140.4800      -1
140.5200       1
140.5600      -4
140.6000      39
140.6400      30
140.6800      18
140.7200      18
140.7600       1
140.8000      13
140.8400      33
140.8800      21
140.9200      49
140.9600      62
141.0000      73
141.0400      21
141.0800      15
141.1200      36
141.1600      30
141.2000      44
141.2400      35
141.2800      36
141.3200      80
141.3600      71
141.4000      29
141.4400       5
141.4800       1
141.5200      20
141.5600      23
141.6000      60
141.6400      20
141.6800       6
141.7200      34
141.7600      -1
141.8000      19
141.8400      27
141.8800      14
141.9200     -13
141.9600      13
142.0000       0
142.0400      27
142.0800      35
142.1200      24
142.1600      30
142.2000      51
142.2400      22
142.2800      10
142.3200       5
142.3600       2
142.4000      44
142.4400      20
142.4800       3
142.5200      17
142.5600      -6
142.6000      -3
142.6400       0
142.6800      34
142.7200      53
142.7600       0
142.8000      15
142.8400      36
142.8800      66
142.9200      30
142.9600      10
143.0000      11
143.0400      18
143.0800      18
143.1200       7
143.1600      40
143.2000      36
143.2400       4
143.2800      17
143.3200      17
143.3600      30
143.4000      60
143.4400      54
143.4800      18
143.5200      46
143.5600      48
143.6000      -5
143.6400      11
143.6800      56
143.7200      25
143.7600      15
143.8000      18
143.8400       1
143.8800       8
143.9200      20
143.9600      12
144.0000     -12
144.0400      -6
144.0800      41
144.1200      43
144.1600      35
144.2000      10
144.2400      37
144.2800      33
144.3200      39
144.3600      94
144.4000      92
144.4400      44
144.4800      40
144.5200      67
144.5600      54
144.6000      44
144.6400      27
144.6800      30
144.7200      21
144.7600      61
144.8000      14
144.8400      16
144.8800      55
144.9200      61
144.9600      12
145.0000       9
145.0400       3
145.0800      -2
145.1200       0
145.1600      10
145.2000      17
145.2400      42
145.2800      55
145.3200      45
145.3600      45
145.4000      42
145.4400      39
145.4800      24
145.5200      25
145.5600      18
145.6000      44
145.6400      59
145.6800      64
145.7200      21
145.7600      28
145.8000      49
145.8400      71
145.8800      28
145.9200      53
145.9600      54
146.0000       5
146.0400      23
146.0800       1
146.1200      -5
146.1600      55
146.2000      35
146.2400       7
146.2800      -2
146.3200     -11
146.3600      14
146.4000      11
146.4400       2
146.4800      54
146.5200      26
146.5600      27
146.6000      27
146.6400      30
146.6800      15
146.7200      25
146.7600      15
146.8000      28
146.8400      -8
146.8800     -17
146.9200      24
146.9600      58
147.0000      16
147.0400      35
147.0800      38
147.1200      44
147.1600      34
147.2000      19
147.2400      26
147.2800      26
147.3200      14
147.3600      34
147.4000      45
147.4400      -2
147.4800       4
147.5200      23
147.5600      13
147.6000       7
147.6400      -1
147.6800       8
147.7200      35
147.7600      17
147.8000      14
147.8400       0
147.8800      20
147.9200      24
147.9600      26
148.0000      36
148.0400      21
148.0800      49
148.1200      55
148.1600      22
148.2000      13
148.2400      16
148.2800      31
148.3200      38
148.3600       7
148.4000      67
148.4400      89
148.4800      43
148.5200      28
148.5600      17
148.6000      28
148.6400      25
148.6800      31
148.7200      39
148.7600      20
148.8000      33
148.8400      32
148.8800      28
148.9200       7
148.9600      33
149.0000      49
149.0400      26
149.0800       0
149.1200     -19
149.1600      60
149.2000      63
149.2400      14
149.2800      11
149.3200      37
149.3600      53
149.4000      53
149.4400       6
149.4800      32
149.5200      38
149.5600      40
149.6000      66
149.6400      28
149.6800      21
149.7200      36
149.7600      21
149.8000      48
149.8400      39
149.8800       4
149.9200      17
149.9600      24
150.0000      72
150.0400      66
150.0800      35
150.1200      -8
150.1600       0
150.2000      27
150.2400      51
150.2800      28
150.3200      24
150.3600      54
150.4000      82
150.4400      44
150.4800      36
150.5200      33
150.5600      54
150.6000      52
150.6400      59
150.6800      34
150.7200      -3
150.7600      19
150.8000      10
150.8400      35
150.8800      92
150.9200      98
150.9600      41
151.0000      69
151.0400      62
151.0800      47
151.1200      82
151.1600      54