File: XRD_Tool/XRD_Tool/bin/Debug/LDA_sample_name_56789_Psi-0_20180622-204947.txt
127.2000      20
127.2400      38
127.2800      53
127.3200      63
127.3600      53
127.4000      41
127.4400       5
127.4800      30
127.5200      42
127.5600      67
127.6000      50
127.6400       2
127.6800      26
127.7200      48
127.7600      42
127.8000      24
127.8400      13
127.8800      59
127.9200      57
127.9600      61
128.0000      67
128.0400      63
128.0800      37
128.1200      11
128.1600      65
128.2000      32
128.2400      29
128.2800      57
128.3200      42
128.3600      23
128.4000      42
128.4400      44
128.4800       9
128.5200      14
128.5600      47
128.6000       9
128.6400      26
128.6800      15
128.7200      18
128.7600      21
128.8000      11
128.8400      19
128.8800      40
128.9200      53
128.9600      50
129.0000      26
129.0400       6
129.0800      21
129.1200      26
129.1600       8
129.2000       7
129.2400      38
129.2800      19
129.3200       1
129.3600      32
129.4000      58
129.4400      62
129.4800      28
129.5200      23
129.5600      17
129.6000      23
129.6400      14
129.6800      57
129.7200      70
129.7600      21
129.8000      -9
129.8400       0
129.8800       9
129.9200      33
129.9600      18
130.0000      40
130.0400      22
130.0800      10
130.1200      17
130.1600      41
130.2000      24
130.2400      -7
130.2800     -23
130.3200      30
130.3600      53
130.4000      32
130.4400      20
130.4800      36
130.5200      27
130.5600      16
130.6000       9
130.6400     -14
130.6800      45
130.7200      52
130.7600      47
130.8000      50
130.8400      31
130.8800       4
130.9200      22
130.9600      18
131.0000      -1
131.0400       3
131.0800      28
131.1200      29
131.1600      13
131.2000      -2
131.2400     -21
131.2800      14
131.3200      21
131.3600      45
131.4000      63
131.4400      53
131.4800      38
131.5200      38
131.5600      65
131.6000      49
131.6400      42
131.6800      38
131.7200      43
131.7600      57
131.8000      36
131.8400       1
131.8800      51
131.9200      71
131.9600      44
132.0000      61
132.0400      28
132.0800      11
132.1200      31
132.1600      36
132.2000      53
132.2400      73
132.2800      48
132.3200      27
132.3600      24
132.4000      25
132.4400      50
132.4800      63
132.5200      49
132.5600      55
132.6000      42
132.6400      16
132.6800      -2
132.7200     -15
132.7600      23
132.8000      38
132.8400      47
132.8800      45
132.9200      25
132.9600      26
133.0000      21
133.0400       7
133.0800      30
133.1200      21
133.1600       0
133.2000      24
133.2400      56
133.2800      61
133.3200      10
133.3600      61
133.4000      35
133.4400      28
133.4800      39
133.5200      74
133.5600      89
133.6000      46
133.6400      23
133.6800      13
133.7200      -4
133.7600      35
133.8000      38
133.8400      39
133.8800      37
133.9200      21
133.9600       3
134.0000      42
134.0400      32
134.0800      45
134.1200      67
134.1600      22
134.2000      39
134.2400      53
134.2800      49
134.3200      68
134.3600      68
134.4000      30
134.4400      65
134.4800      74
134.5200      53
134.5600      48
134.6000      42
134.6400      29
134.6800      14
134.7200      29
134.7600      40
134.8000      35
134.8400      33
134.8800      52
134.9200      38
134.9600      33
135.0000      15
135.0400      20
135.0800      12
135.1200      21
135.1600      27
135.2000      34
135.2400      30
135.2800      35
135.3200      45
135.3600      43
135.4000      39
135.4400      14
135.4800      17
135.5200      59
135.5600      55
135.6000      75
135.6400      69
135.6800      51
135.7200      47
135.7600      32
135.8000      24
135.8400      29
135.8800      31
135.9200      16
135.9600      14
136.0000      27
136.0400      40
136.0800       3
136.1200      29
136.1600      64
136.2000      23
136.2400      62
136.2800      32
136.3200      32
136.3600      25
136.4000      20
136.4400      52
136.4800     107
136.5200      49
136.5600      40
136.6000      18
136.6400      23
136.6800      39
136.7200      15
136.7600      27
136.8000      64
136.8400      33
136.8800      14
136.9200      36
136.9600      32
137.0000      25
137.0400      43
137.0800      26
137.1200      43
137.1600      23
137.2000      31
137.2400      33
137.2800      48
137.3200      18
137.3600      16
137.4000      -1
137.4400      33
137.4800      48
137.5200      45
137.5600      48
137.6000      44
137.6400      71
137.6800      71
137.7200      38
137.7600      40
137.8000      52
137.8400      35
137.8800      29
137.9200      36
137.9600      24
138.0000       8
138.0400      56
138.0800      62
138.1200      53
138.1600      49
138.2000       7
138.2400       5
138.2800      23
138.3200      65
138.3600      60
138.4000      24
138.4400      52
138.4800      26
138.5200      62
138.5600      43
138.6000      48
138.6400      36
138.6800      41
138.7200      27
138.7600      63
138.8000      49
138.8400      37
138.8800       1
138.9200      -5
138.9600      45
139.0000      26
139.0400      21
139.0800      44
139.1200      77
139.1600      46
139.2000      67
139.2400      74
139.2800      53
139.3200      38
139.3600      44
139.4000      88
139.4400      64
139.4800      36
139.5200      68
139.5600      83
139.6000      88
139.6400      45
139.6800      46
139.7200      43
139.7600      43
139.8000      62
139.8400      48
139.8800      78
139.9200      78
139.9600      69
140.0000      60
140.0400      20
140.0800      15
140.1200      20
140.1600      37
140.2000      47
140.2400      33
140.2800      39
140.3200      34
140.3600      55
140.4000      55
140.4400      33
140.4800      48
140.5200      23
140.5600      26
140.6000      46
140.6400      61
140.6800      26
140.7200      26
140.7600      35
140.8000      42
140.8400      47
140.8800      26
140.9200       2
140.9600      37
141.0000      29
141.0400      43
141.0800      32
141.1200      17
141.1600      36
141.2000      24
141.2400      48
141.2800      35
141.3200      22
141.3600      39
141.4000      43
141.4400      55
141.4800      55
141.5200      72
141.5600      50
141.6000      16
141.6400       9
141.6800      29
141.7200      35
141.7600      37
141.8000      30
141.8400      33
141.8800      16
141.9200      46
141.9600      46
142.0000      38
142.0400      64
142.0800      42
142.1200       0
142.1600      32
142.2000      76
142.2400      71
142.2800      48
142.3200      41
142.3600      65
142.4000      54
142.4400      50
142.4800      46
142.5200      50
142.5600      51
142.6000      47
142.6400      28
142.6800      42
142.7200      56
142.7600      61
142.8000      62
142.8400      27
142.8800       8
142.9200      14
142.9600      36
143.0000      32
143.0400      28
143.0800      12
143.1200      26
143.1600      30
143.2000      46
143.2400      75
143.2800      47
143.3200      50
143.3600      68
143.4000      41
143.4400      43
143.4800      26
143.5200      39
143.5600      51
143.6000      57
143.6400      32
143.6800      18
143.7200      51
143.7600      46
143.8000      36
143.8400      26
143.8800      57
143.9200      55
143.9600      65
144.0000      64
144.0400      61
144.0800      64
144.1200      59
144.1600      56
144.2000      50
144.2400      36
144.2800       3
144.3200      29
144.3600      20
144.4000      25
144.4400      21
144.4800      45
144.5200      77
144.5600      33
144.6000      55
144.6400      42
144.6800      43
144.7200      70
144.7600      37
144.8000       5
144.8400      -3
144.8800      25
144.9200      70
144.9600      56
145.0000      23
145.0400       2
145.0800      23
145.1200      35
145.1600      42
145.2000      42
145.2400      35
145.2800      43
145.3200      63
145.3600      52
145.4000      55
145.4400      48
145.4800      33
145.5200       3
145.5600      46
145.6000      65
145.6400      72
145.6800      84
145.7200      66
145.7600      41
145.8000      47
145.8400      50
145.8800      43
145.9200      50
145.9600      41
146.0000      47
146.0400      35
146.0800      35
146.1200      57
146.1600      97
146.2000      37
146.2400      19
146.2800      51
146.3200      36
146.3600      83
146.4000      91
146.4400      29
146.4800      37
146.5200      71
146.5600      58
146.6000      33
146.6400      39
146.6800      42
146.7200      36
146.7600      55
146.8000      16
146.8400      22
146.8800      65
146.9200      47
146.9600       0
147.0000      59
147.0400      81
147.0800      26
147.1200      36
147.1600      42
147.2000      67
147.2400      53
147.2800      76
147.3200      41
147.3600      13
147.4000       8
147.4400      63
147.4800      89
147.5200      56
147.5600      27
147.6000      81
147.6400      49
147.6800      54
147.7200      65
147.7600      66
147.8000      57
147.8400      74
147.8800      80
147.9200      28
147.9600      17
148.0000      49
148.0400      38
148.0800      35
148.1200      45
148.1600      37
148.2000      21
148.2400      12
148.2800      33
148.3200      33
148.3600      35
148.4000      59
148.4400      39
148.4800       1
148.5200      57
148.5600      89
148.6000      57
148.6400      49
148.6800      26
148.7200      39
148.7600      42
148.8000      74
148.8400      89
148.8800      53
148.9200      71
148.9600      45
149.0000      43
149.0400      77
149.0800      80
149.1200      31
149.1600      81
149.2000      65
149.2400      33
149.2800      54
149.3200      92
149.3600      41
149.4000      52
149.4400      65
149.4800      76
149.5200      72
149.5600      56
149.6000     103
149.6400      78
149.6800      45
149.7200      91
149.7600      88
149.8000      67
149.8400      78
149.8800      62
149.9200      49
149.9600      69
150.0000      84
150.0400      67
150.0800      52
150.1200      68
150.1600      64
150.2000      58
150.2400     107
150.2800      98
150.3200      63
150.3600      40
150.4000      38
150.4400      66
150.4800      68
150.5200      45
150.5600      68
150.6000      77
150.6400      62
150.6800      76
150.7200      77
150.7600      57
150.8000      68
150.8400      53
150.8800      36
150.9200      60
150.9600     108
151.0000     123
151.0400     125
151.0800     116
151.1200      85
151.1600      52