File: XRD_Tool/XRD_Tool/bin/Debug/LDA_sample_name_56789_Psi-0_20180623-124854.txt
138.0000     152
138.0200     166
138.0400     190
138.0600     219
138.0800     251
138.1000     275
138.1200     249
138.1400     212
138.1600     219
138.1800     238
138.2000     237
138.2200     228
138.2400     224
138.2600     233
138.2800     297
138.3000     368
138.3200     362
138.3400     319
138.3600     241
138.3800     166
138.4000     173
138.4200     216
138.4400     277
138.4600     327
138.4800     289
138.5000     228
138.5200     234
138.5400     260
138.5600     261
138.5800     256
138.6000     278
138.6200     309
138.6400     336
138.6600     356
138.6800     341
138.7000     311
138.7200     273
138.7400     232
138.7600     198
138.7800     175
138.8000     198
138.8200     236
138.8400     251
138.8600     256
138.8800     258
138.9000     257
138.9200     254
138.9400     247
138.9600     227
138.9800     206
139.0000     212
139.0200     232
139.0400     277
139.0600     323
139.0800     332
139.1000     319
139.1200     268
139.1400     206
139.1600     166
139.1800     146
139.2000     191
139.2200     250
139.2400     254
139.2600     245
139.2800     279
139.3000     326
139.3200     350
139.3400     353
139.3600     303
139.3800     239
139.4000     218
139.4200     218
139.4400     236
139.4600     256
139.4800     245
139.5000     229
139.5200     254
139.5400     290
139.5600     293
139.5800     289
139.6000     317
139.6200     343
139.6400     304
139.6600     257
139.6800     308
139.7000     379
139.7200     352
139.7400     298
139.7600     307
139.7800     326
139.8000     265
139.8200     192
139.8400     211
139.8600     263
139.8800     298
139.9000     320
139.9200     312
139.9400     289
139.9600     249
139.9800     217
140.0000     255
140.0200     309
140.0400     302
140.0600     273
140.0800     264
140.1000     260
140.1200     246
140.1400     235
140.1600     259
140.1800     292
140.2000     300
140.2200     301
140.2400     319
140.2600     335
140.2800     311
140.3000     281
140.3200     304
140.3400     337
140.3600     317
140.3800     278
140.4000     254
140.4200     242
140.4400     263
140.4600     283
140.4800     228
140.5000     156
140.5200     141
140.5400     146
140.5600     141
140.5800     141
140.6000     191
140.6200     259
140.6400     319
140.6600     366
140.6800     368
140.7000     349
140.7200     320
140.7400     292
140.7600     297
140.7800     312
140.8000     311
140.8200     297
140.8400     253
140.8600     204
140.8800     190
140.9000     202
140.9200     274
140.9400     347
140.9600     310
140.9800     241
141.0000     235
141.0200     254
141.0400     268
141.0600     278
141.0800     276
141.1000     269
141.1200     257
141.1400     242
141.1600     219
141.1800     201
141.2000     223
141.2200     257
141.2400     273
141.2600     284
141.2800     313
141.3000     339
141.3200     313
141.3400     277
141.3600     286
141.3800     313
141.4000     337
141.4200     348
141.4400     306
141.4600     245
141.4800     199
141.5000     164
141.5200     157
141.5400     175
141.5600     263
141.5800     358
141.6000     348
141.6200     302
141.6400     288
141.6600     288
141.6800     301
141.7000     313
141.7200     292
141.7400     267
141.7600     290
141.7800     322
141.8000     304
141.8200     274
141.8400     284
141.8600     310
141.8800     335
141.9000     348
141.9200     307
141.9400     254
141.9600     245
141.9800     254
142.0000     271
142.0200     289
142.0400     297
142.0600     303
142.0800     319
142.1000     338
142.1200     349
142.1400     354
142.1600     349
142.1800     335
142.2000     304
142.2200     268
142.2400     242
142.2600     230
142.2800     267
142.3000     319
142.3200     356
142.3400     375
142.3600     342
142.3800     301
142.4000     324
142.4200     364
142.4400     367
142.4600     355
142.4800     343
142.5000     329
142.5200     307
142.5400     289
142.5600     311
142.5800     333
142.6000     273
142.6200     198
142.6400     206
142.6600     251
142.6800     306
142.7000     348
142.7200     302
142.7400     237
142.7600     257
142.7800     304
142.8000     314
142.8200     318
142.8400     359
142.8600     409
142.8800     434
142.9000     436
142.9200     380
142.9400     318
142.9600     349
142.9800     407
143.0000     412
143.0200     395
143.0400     378
143.0600     363
143.0800     361
143.1000     364
143.1200     364
143.1400     361
143.1600     356
143.1800     343
143.2000     292
143.2200     243
143.2400     279
143.2600     338
143.2800     345
143.3000     328
143.3200     296
143.3400     274
143.3600     329
143.3800     398
143.4000     385
143.4200     346
143.4400     339
143.4600     335
143.4800     281
143.5000     230
143.5200     296
143.5400     387
143.5600     378
143.5800     342
143.6000     379
143.6200     428
143.6400     387
143.6600     322
143.6800     309
143.7000     311
143.7200     288
143.7400     266
143.7600     307
143.7800     366
143.8000     390
143.8200     401
143.8400     416
143.8600     420
143.8800     365
143.9000     305
143.9200     332
143.9400     377
143.9600     339
143.9800     280
144.0000     287
144.0200     315
144.0400     308
144.0600     289
144.0800     272
144.1000     264
144.1200     296
144.1400     333
144.1600     320
144.1800     307
144.2000     397
144.2200     501
144.2400     462
144.2600     380
144.2800     371
144.3000     385
144.3200     366
144.3400     341
144.3600     354
144.3800     377
144.4000     373
144.4200     356
144.4400     323
144.4600     286
144.4800     264
144.5000     254
144.5200     274
144.5400     300
144.5600     299
144.5800     283
144.6000     244
144.6200     212
144.6400     263
144.6600     337
144.6800     359
144.7000     355
144.7200     321
144.7400     281
144.7600     268
144.7800     274
144.8000     318
144.8200     371
144.8400     386
144.8600     380
144.8800     347
144.9000     307
144.9200     285
144.9400     276
144.9600     289
144.9800     310
145.0000     326
145.0200     335
145.0400     322
145.0600     310
145.0800     343
145.1000     390
145.1200     414
145.1400     420
145.1600     384
145.1800     343
145.2000     359
145.2200     385
145.2400     351
145.2600     301
145.2800     289
145.3000     296
145.3200     315
145.3400     334
145.3600     331
145.3800     328
145.4000     370
145.4200     420
145.4400     417
145.4600     394
145.4800     381
145.5000     368
145.5200     343
145.5400     312
145.5600     273
145.5800     243
145.6000     271
145.6200     317
145.6400     330
145.6600     332
145.6800     349
145.7000     367
145.7200     367
145.7400     363
145.7600     382
145.7800     418
145.8000     494
145.8200     559
145.8400     491
145.8600     374
145.8800     285
145.9000     232
145.9200     299
145.9400     397
145.9600     407
145.9800     376
146.0000     323
146.0200     276
146.0400     303
146.0600     350
146.0800     357
146.1000     354
146.1200     389
146.1400     422
146.1600     369
146.1800     298
146.2000     312
146.2200     349
146.2400     332
146.2600     296
146.2800     270
146.3000     245
146.3200     202
146.3400     184
146.3600     329
146.3800     488
146.4000     391
146.4200     221
146.4400     202
146.4600     246
146.4800     300
146.5000     345
146.5200     325
146.5400     288
146.5600     291
146.5800     307
146.6000     301
146.6200     289
146.6400     286
146.6600     288
146.6800     303
146.7000     332
146.7200     406
146.7400     480
146.7600     466
146.7800     424
146.8000     422
146.8200     425
146.8400     373
146.8600     314
146.8800     332
146.9000     367
146.9200     338
146.9400     294
146.9600     300
146.9800     329
147.0000     368
147.0200     407
147.0400     419
147.0600     420
147.0800     415
147.1000     405
147.1200     388
147.1400     358
147.1600     275
147.1800     198
147.2000     259
147.2200     358
147.2400     374
147.2600     358
147.2800     350
147.3000     348
147.3200     358
147.3400     380
147.3600     445
147.3800     519
147.4000     552
147.4200     554
147.4400     491
147.4600     413
147.4800     397
147.5000     404
147.5200     411
147.5400     412
147.5600     391
147.5800     365
147.6000     356
147.6200     350
147.6400     327
147.6600     308
147.6800     343
147.7000     398
147.7200     451
147.7400     488
147.7600     448
147.7800     392
147.8000     403
147.8200     431
147.8400     409
147.8600     370
147.8800     344
147.9000     335
147.9200     379
147.9400     433
147.9600     426
147.9800     410
148.0000     474
148.0200     546
148.0400     498
148.0600     412
148.0800     379
148.1000     373
148.1200     395
148.1400     418
148.1600     383
148.1800     335
148.2000     339
148.2200     361
148.2400     376
148.2600     383
148.2800     365
148.3000     347
148.3200     377
148.3400     421
148.3600     430
148.3800     431
148.4000     454
148.4200     469
148.4400     400
148.4600     322
148.4800     361
148.5000     431
148.5200     421
148.5400     385
148.5600     381
148.5800     399
148.6000     468
148.6200     537
148.6400     501
148.6600     437
148.6800     440
148.7000     459
148.7200     426
148.7400     379
148.7600     362
148.7800     357
148.8000     347
148.8200     345
148.8400     390
148.8600     449
148.8800     488
148.9000     514
148.9200     518
148.9400     512
148.9600     493
148.9800     475
149.0000     487
149.0200     496
149.0400     433
149.0600     358
149.0800     365
149.1000     402
149.1200     425
149.1400     443
149.1600     456
149.1800     467
149.2000     470
149.2200     466
149.2400     447
149.2600     428
149.2800     442
149.3000     465
149.3200     461
149.3400     442
149.3600     393
149.3800     351
149.4000     401
149.4200     468
149.4400     443
149.4600     399
149.4800     440
149.5000     498
149.5200     468
149.5400     409
149.5600     387
149.5800     382
149.6000     392
149.6200     405
149.6400     408
149.6600     404
149.6800     388
149.7000     379
149.7200     423
149.7400     473
149.7600     440
149.7800     381
149.8000     355
149.8200     355
149.8400     413
149.8600     485
149.8800     504
149.9000     498
149.9200     475
149.9400     447
149.9600     429
149.9800     422
150.0000     447
150.0200     482
150.0400     500
150.0600     507
150.0800     491
150.1000     467
150.1200     451
150.1400     450
150.1600     504
150.1800     564
150.2000     541
150.2200     496
150.2400     506
150.2600     537
150.2800     564
150.3000     583
150.3200     566
150.3400     541
150.3600     551
150.3800     563
150.4000     520
150.4200     470
150.4400     500
150.4600     550
150.4800     543
150.5000     520
150.5200     527
150.5400     550
150.5600     585
150.5800     613
150.6000     581
150.6200     527
150.6400     488
150.6600     463
150.6800     485
150.7000     520
150.7200     531
150.7400     532
150.7600     528
150.7800     540
150.8000     639
150.8200     747
150.8400     728
150.8600     660
150.8800     599
150.9000     549
150.9200     537
150.9400     543
150.9600     556
150.9800     571
151.0000     582
151.0200     598
151.0400     641
151.0600     686
151.0800     689
151.1000     670
151.1200     623
151.1400     580
151.1600     614
151.1800     664
151.2000     644
151.2200     616
151.2400     691
151.2600     777
151.2800     713
151.3000     619
151.3200     672
151.3400     757
151.3600     710
151.3800     628
151.4000     638
151.4200     699
151.4400     835
151.4600     957
151.4800     859
151.5000     708
151.5200     732
151.5400     815
151.5600     846
151.5800     858
151.6000     877
151.6200     886
151.6400     833
151.6600     769
151.6800     774
151.7000     803
151.7200     817
151.7400     819
151.7600     796
151.7800     776
151.8000     826
151.8200     895
151.8400     921
151.8600     923
151.8800     898
151.9000     870
151.9200     884
151.9400     910
151.9600     919
151.9800     924
152.0000     939
152.0200     964
152.0400    1016
152.0600    1067
152.0800    1063
152.1000    1039
152.1200    1023
152.1400    1011
152.1600     996
152.1800     986
152.2000    1011
152.2200    1060
152.2400    1166
152.2600    1263
152.2800    1206
152.3000    1101
152.3200    1058
152.3400    1043
152.3600    1046
152.3800    1062
152.4000    1108
152.4200    1170
152.4400    1252
152.4600    1326
152.4800    1320
152.5000    1288
152.5200    1285
152.5400    1305
152.5600    1386
152.5800    1484
152.6000    1541
152.6200    1579
152.6400    1607
152.6600    1621
152.6800    1590
152.7000    1562
152.7200    1647
152.7400    1740
152.7600    1645
152.7800    1516
152.8000    1594
152.8200    1727
152.8400    1726
152.8600    1700
152.8800    1809
152.9000    1945
152.9200    1943
152.9400    1897
152.9600    1914
152.9800    1951
153.0000    1963
153.0200    1957
153.0400    1906
153.0600    1863
153.0800    1943
153.1000    2054
153.1200    2070
153.1400    2046
153.1600    2009
153.1800    1987
153.2000    2067
153.2200    2169
153.2400    2184
153.2600    2152
153.2800    2057
153.3000    1976
153.3200    2090
153.3400    2259
153.3600    2318
153.3800    2330
153.4000    2334
153.4200    2324
153.4400    2269
153.4600    2220
153.4800    2299
153.5000    2407
153.5200    2405
153.5400    2379
153.5600    2453
153.5800    2545
153.6000    2522
153.6200    2461
153.6400    2435
153.6600    2435
153.6800    2493
153.7000    2585
153.7200    2727
153.7400    2856
153.7600    2819
153.7800    2721
153.8000    2656
153.8200    2620
153.8400    2661
153.8600    2713
153.8800    2668
153.9000    2603
153.9200    2630
153.9400    2679
153.9600    2656
153.9800    2613
154.0000    2613
154.0200    2620
154.0400    2569
154.0600    2512
154.0800    2542
154.1000    2594
154.1200    2591
154.1400    2599
154.1600    2775
154.1800    2966
154.2000    2890
154.2200    2726
154.2400    2651
154.2600    2622
154.2800    2649
154.3000    2690
154.3200    2683
154.3400    2661
154.3600    2662
154.3800    2671
154.4000    2670
154.4200    2651
154.4400    2554
154.4600    2457
154.4800    2518
154.5000    2632
154.5200    2696
154.5400    2714
154.5600    2602
154.5800    2448
154.6000    2346
154.6200    2286
154.6400    2334
154.6600    2418
154.6800    2464
154.7000    2472
154.7200    2372
154.7400    2234
154.7600    2129
154.7800    2073
154.8000    2197
154.8200    2376
154.8400    2470
154.8600    2508
154.8800    2438
154.9000    2337
154.9200    2304
154.9400    2297
154.9600    2280
154.9800    2271
155.0000    2315
155.0200    2362
155.0400    2309
155.0600    2210
155.0800    2073
155.1000    1939
155.1200    1900
155.1400    1895
155.1600    1878
155.1800    1868
155.2000    1917
155.2200    1979
155.2400    1991
155.2600    1982
155.2800    1973
155.3000    1942
155.3200    1806
155.3400    1674
155.3600    1775
155.3800    1920
155.4000    1817
155.4200    1657
155.4400    1707
155.4600    1800
155.4800    1686
155.5000    1529
155.5200    1564
155.5400    1657
155.5600    1655
155.5800    1609
155.6000    1534
155.6200    1450
155.6400    1373
155.6600    1328
155.6800    1431
155.7000    1561
155.7200    1531
155.7400    1442
155.7600    1373
155.7800    1327
155.8000    1353
155.8200    1402
155.8400    1426
155.8600    1428
155.8800    1373
155.9000    1300
155.9200    1252
155.9400    1222
155.9600    1231
155.9800    1257
156.0000    1298
156.0200    1328
156.0400    1278
156.0600    1212
156.0800    1229
156.1000    1271
156.1200    1270
156.1400    1245
156.1600    1183
156.1800    1122
156.2000    1133
156.2200    1171
156.2400    1200
156.2600    1210
156.2800    1140
156.3000    1062
156.3200    1099
156.3400    1158
156.3600    1094
156.3800     999
156.4000    1002
156.4200    1031
156.4400     995
156.4600     953
156.4800    1006
156.5000    1082
156.5200    1078
156.5400    1041
156.5600     996
156.5800     950
156.6000     919
156.6200     894
156.6400     876
156.6600     869
156.6800     910
156.7000     949
156.7200     880
156.7400     803
156.7600     902
156.7800    1039
156.8000    1008
156.8200     909
156.8400     803
156.8600     721
156.8800     771
156.9000     845
156.9200     779
156.9400     681
156.9600     703
156.9800     764
157.0000     778
157.0200     778
157.0400     798
157.0600     828
157.0800     870
157.1000     894
157.1200     810
157.1400     700
157.1600     685
157.1800     699
157.2000     675
157.2200     645
157.2400     666
157.2600     693
157.2800     645
157.3000     583
157.3200     598
157.3400     645
157.3600     695
157.3800     737
157.4000     729
157.4200     695
157.4400     629
157.4600     568
157.4800     592
157.5000     642
157.5200     651
157.5400     641
157.5600     624
157.5800     612
157.6000     638
157.6200     675
157.6400     684
157.6600     687
157.6800     718
157.7000     749
157.7200     720
157.7400     664
157.7600     590
157.7800     524
157.8000     541
157.8200     590
157.8400     633
157.8600     665
157.8800     658
157.9000     631
157.9200     578
157.9400     528
157.9600     553
157.9800     600
158.0000     612
158.0200     608
158.0400     594
158.0600     578
158.0800     574
158.1000     578
158.1200     603
158.1400     632
158.1600     631
158.1800     615
158.2000     577
158.2200     539
158.2400     536
158.2600     545
158.2800     536
158.3000     520
158.3200     507
158.3400     499
158.3600     508
158.3800     520
158.4000     513
158.4200     506
158.4400     531
158.4600     551
158.4800     484
158.5000     407
158.5200     454
158.5400     535
158.5600     541
158.5800     513
158.6000     470
158.6200     441
158.6400     515
158.6600     609
158.6800     590
158.7000     530
158.7200     490
158.7400     464
158.7600     468
158.7800     488
158.8000     528
158.8200     558
158.8400     501
158.8600     420
158.8800     391
158.9000     391
158.9200     436
158.9400     491
158.9600     511
158.9800     509
159.0000     469
159.0200     422
159.0400     423
159.0600     440
159.0800     442
159.1000     448
159.1200     502
159.1400     557
159.1600     514
159.1800     448
159.2000     465
159.2200     514
159.2400     558
159.2600     584
159.2800     527
159.3000     450
159.3200     440
159.3400     457
159.3600     482
159.3800     504
159.4000     494
159.4200     481
159.4400     508
159.4600     538
159.4800     496
159.5000     434
159.5200     409
159.5400     398
159.5600     380
159.5800     365
159.6000     375
159.6200     398
159.6400     436
159.6600     472
159.6800     465
159.7000     440
159.7200     413
159.7400     396
159.7600     431
159.7800     475
159.8000     464
159.8200     431
159.8400     406
159.8600     394
159.8800     427
159.9000     457
159.9200     374
159.9400     273
159.9600     307
159.9800     384
160.0000     409
160.0200     410
160.0400     394
160.0600     377
160.0800     382
160.1000     390
160.1200     370
160.1400     343
160.1600     344
160.1800     353
160.2000     344
160.2200     341
160.2400     404
160.2600     472
160.2800     425
160.3000     346
160.3200     334
160.3400     341
160.3600     315
160.3800     284
160.4000     298
160.4200     322
160.4400     309
160.4600     286
160.4800     288
160.5000     297
160.5200     288
160.5400     288
160.5600     371
160.5800     464
160.6000     439
160.6200     370
160.6400     321
160.6600     294
160.6800     344
160.7000     409
160.7200     399
160.7400     361
160.7600     336
160.7800     323
160.8000     343
160.8200     372
160.8400     373
160.8600     365
160.8800     370
160.9000     379
160.9200     380
160.9400     371
160.9600     329
160.9800     271
161.0000     206
161.0200     156
161.0400     193
161.0600     264
161.0800     330
161.1000     380
161.1200     363
161.1400     327
161.1600     331
161.1800     351
161.2000     373
161.2200     383
161.2400     333
161.2600     277
161.2800     314
161.3000     370
161.3200     333
161.3400     269
161.3600     253
161.3800     261
161.4000     291
161.4200     324
161.4400     332
161.4600     335
161.4800     361
161.5000     379
161.5200     307
161.5400     217
161.5600     217
161.5800     252
161.6000     282
161.6200     308
161.6400     322
161.6600     332
161.6800     342
161.7000     353
161.7200     369
161.7400     377
161.7600     334
161.7800     276
161.8000     253
161.8200     248
161.8400     266
161.8600     290
161.8800     291
161.9000     284
161.9200     283
161.9400     280
161.9600     249
161.9800     223