File: XRD_Tool/XRD_Tool/bin/Debug/LDA_sample_name_56789_Psi-24_20180623-122849.txt
138.0000     294
138.0200     230
138.0400     209
138.0600     202
138.0800     180
138.1000     158
138.1200     161
138.1400     181
138.1600     229
138.1800     277
138.2000     264
138.2200     224
138.2400     177
138.2600     137
138.2800     149
138.3000     180
138.3200     209
138.3400     231
138.3600     220
138.3800     198
138.4000     188
138.4200     184
138.4400     190
138.4600     197
138.4800     190
138.5000     186
138.5200     222
138.5400     266
138.5600     270
138.5800     260
138.6000     257
138.6200     255
138.6400     241
138.6600     228
138.6800     242
138.7000     266
138.7200     293
138.7400     310
138.7600     269
138.7800     208
138.8000     164
138.8200     143
138.8400     208
138.8600     296
138.8800     324
138.9000     323
138.9200     294
138.9400     259
138.9600     252
138.9800     260
139.0000     287
139.0200     303
139.0400     234
139.0600     154
139.0800     197
139.1000     266
139.1200     220
139.1400     145
139.1600     154
139.1800     189
139.2000     194
139.2200     190
139.2400     206
139.2600     227
139.2800     231
139.3000     230
139.3200     231
139.3400     237
139.3600     266
139.3800     290
139.4000     242
139.4200     178
139.4400     169
139.4600     187
139.4800     225
139.5000     261
139.5200     245
139.5400     219
139.5600     242
139.5800     268
139.6000     215
139.6200     145
139.6400     142
139.6600     172
139.6800     234
139.7000     290
139.7200     261
139.7400     214
139.7600     250
139.7800     301
139.8000     257
139.8200     190
139.8400     195
139.8600     220
139.8800     205
139.9000     176
139.9200     162
139.9400     156
139.9600     163
139.9800     177
140.0000     201
140.0200     231
140.0400     271
140.0600     304
140.0800     281
140.1000     246
140.1200     269
140.1400     304
140.1600     282
140.1800     240
140.2000     208
140.2200     180
140.2400     149
140.2600     129
140.2800     171
140.3000     230
140.3200     257
140.3400     270
140.3600     276
140.3800     278
140.4000     269
140.4200     251
140.4400     216
140.4600     182
140.4800     185
140.5000     191
140.5200     140
140.5400      90
140.5600     157
140.5800     256
140.6000     281
140.6200     269
140.6400     212
140.6600     146
140.6800     118
140.7000     116
140.7200     163
140.7400     210
140.7600     162
140.7800      95
140.8000     123
140.8200     192
140.8400     281
140.8600     363
140.8800     375
140.9000     352
140.9200     296
140.9400     233
140.9600     210
140.9800     210
141.0000     248
141.0200     294
141.0400     300
141.0600     281
141.0800     219
141.1000     160
141.1200     209
141.1400     291
141.1600     320
141.1800     322
141.2000     292
141.2200     252
141.2400     219
141.2600     198
141.2800     225
141.3000     263
141.3200     261
141.3400     240
141.3600     202
141.3800     166
141.4000     169
141.4200     198
141.4400     285
141.4600     368
141.4800     318
141.5000     225
141.5200     189
141.5400     178
141.5600     185
141.5800     205
141.6000     253
141.6200     301
141.6400     289
141.6600     262
141.6800     277
141.7000     292
141.7200     224
141.7400     137
141.7600     126
141.7800     147
141.8000     168
141.8200     192
141.8400     223
141.8600     257
141.8800     296
141.9000     320
141.9200     262
141.9400     186
141.9600     177
141.9800     196
142.0000     223
142.0200     248
142.0400     246
142.0600     240
142.0800     264
142.1000     287
142.1200     245
142.1400     185
142.1600     165
142.1800     171
142.2000     222
142.2200     282
142.2400     289
142.2600     281
142.2800     308
142.3000     337
142.3200     311
142.3400     264
142.3600     220
142.3800     183
142.4000     173
142.4200     176
142.4400     194
142.4600     224
142.4800     286
142.5000     343
142.5200     320
142.5400     285
142.5600     355
142.5800     440
142.6000     392
142.6200     308
142.6400     314
142.6600     343
142.6800     307
142.7000     254
142.7200     247
142.7400     261
142.7600     280
142.7800     295
142.8000     275
142.8200     255
142.8400     303
142.8600     361
142.8800     329
142.9000     272
142.9200     269
142.9400     285
142.9600     292
142.9800     302
143.0000     341
143.0200     376
143.0400     341
143.0600     293
143.0800     323
143.1000     381
143.1200     421
143.1400     440
143.1600     397
143.1800     333
143.2000     286
143.2200     257
143.2400     285
143.2600     329
143.2800     343
143.3000     350
143.3200     382
143.3400     408
143.3600     355
143.3800     287
143.4000     299
143.4200     337
143.4400     342
143.4600     331
143.4800     303
143.5000     271
143.5200     251
143.5400     243
143.5600     277
143.5800     324
143.6000     356
143.6200     377
143.6400     374
143.6600     352
143.6800     275
143.7000     194
143.7200     196
143.7400     228
143.7600     239
143.7800     243
143.8000     258
143.8200     276
143.8400     283
143.8600     290
143.8800     322
143.9000     353
143.9200     332
143.9400     290
143.9600     245
143.9800     205
144.0000     195
144.0200     201
144.0400     228
144.0600     270
144.0800     339
144.1000     399
144.1200     361
144.1400     292
144.1600     268
144.1800     268
144.2000     298
144.2200     329
144.2400     308
144.2600     274
144.2800     282
144.3000     301
144.3200     297
144.3400     286
144.3600     290
144.3800     303
144.4000     334
144.4200     357
144.4400     302
144.4600     221
144.4800     166
144.5000     135
144.5200     166
144.5400     224
144.5600     294
144.5800     348
144.6000     307
144.6200     235
144.6400     205
144.6600     201
144.6800     248
144.7000     305
144.7200     302
144.7400     278
144.7600     266
144.7800     258
144.8000     248
144.8200     246
144.8400     282
144.8600     330
144.8800     353
144.9000     360
144.9200     332
144.9400     299
144.9600     308
144.9800     330
145.0000     332
145.0200     330
145.0400     351
145.0600     375
145.0800     369
145.1000     357
145.1200     372
145.1400     379
145.1600     294
145.1800     202
145.2000     260
145.2200     356
145.2400     340
145.2600     289
145.2800     282
145.3000     290
145.3200     288
145.3400     284
145.3600     290
145.3800     296
145.4000     282
145.4200     257
145.4400     222
145.4600     207
145.4800     315
145.5000     445
145.5200     437
145.5400     382
145.5600     370
145.5800     372
145.6000     351
145.6200     317
145.6400     263
145.6600     209
145.6800     195
145.7000     204
145.7200     249
145.7400     297
145.7600     282
145.7800     249
145.8000     254
145.8200     274
145.8400     289
145.8600     302
145.8800     308
145.9000     310
145.9200     299
145.9400     283
145.9600     267
145.9800     252
146.0000     244
146.0200     237
146.0400     226
146.0600     217
146.0800     223
146.1000     237
146.1200     261
146.1400     289
146.1600     314
146.1800     332
146.2000     323
146.2200     313
146.2400     350
146.2600     387
146.2800     331
146.3000     243
146.3200     190
146.3400     169
146.3600     245
146.3800     341
146.4000     348
146.4200     318
146.4400     277
146.4600     242
146.4800     265
146.5000     303
146.5200     301
146.5400     293
146.5600     332
146.5800     375
146.6000     344
146.6200     284
146.6400     221
146.6600     174
146.6800     212
146.7000     276
146.7200     298
146.7400     307
146.7600     331
146.7800     351
146.8000     318
146.8200     267
146.8400     231
146.8600     213
146.8800     260
146.9000     325
146.9200     353
146.9400     353
146.9600     281
146.9800     196
147.0000     183
147.0200     209
147.0400     285
147.0600     359
147.0800     326
147.1000     271
147.1200     321
147.1400     392
147.1600     358
147.1800     293
147.2000     282
147.2200     295
147.2400     324
147.2600     356
147.2800     363
147.3000     361
147.3200     356
147.3400     351
147.3600     356
147.3800     364
147.4000     375
147.4200     379
147.4400     343
147.4600     300
147.4800     299
147.5000     311
147.5200     305
147.5400     300
147.5600     345
147.5800     394
147.6000     371
147.6200     329
147.6400     336
147.6600     356
147.6800     346
147.7000     336
147.7200     387
147.7400     449
147.7600     438
147.7800     390
147.8000     300
147.8200     220
147.8400     270
147.8600     361
147.8800     397
147.9000     412
147.9200     432
147.9400     445
147.9600     411
147.9800     364
148.0000     342
148.0200     348
148.0400     441
148.0600     530
148.0800     427
148.1000     284
148.1200     321
148.1400     405
148.1600     359
148.1800     284
148.2000     321
148.2200     393
148.2400     418
148.2600     422
148.2800     416
148.3000     404
148.3200     379
148.3400     350
148.3600     331
148.3800     322
148.4000     351
148.4200     388
148.4400     387
148.4600     374
148.4800     379
148.5000     394
148.5200     419
148.5400     437
148.5600     393
148.5800     343
148.6000     378
148.6200     439
148.6400     452
148.6600     444
148.6800     431
148.7000     414
148.7200     395
148.7400     375
148.7600     350
148.7800     340
148.8000     407
148.8200     483
148.8400     454
148.8600     401
148.8800     446
148.9000     510
148.9200     473
148.9400     405
148.9600     392
148.9800     395
149.0000     371
149.0200     335
149.0400     286
149.0600     248
149.0800     295
149.1000     373
149.1200     441
149.1400     495
149.1600     501
149.1800     488
149.2000     481
149.2200     466
149.2400     393
149.2600     309
149.2800     287
149.3000     290
149.3200     301
149.3400     320
149.3600     361
149.3800     402
149.4000     399
149.4200     387
149.4400     412
149.4600     438
149.4800     392
149.5000     336
149.5200     370
149.5400     431
149.5600     449
149.5800     446
149.6000     428
149.6200     408
149.6400     411
149.6600     425
149.6800     444
149.7000     461
149.7200     455
149.7400     428
149.7600     348
149.7800     273
149.8000     336
149.8200     438
149.8400     462
149.8600     455
149.8800     451
149.9000     451
149.9200     463
149.9400     475
149.9600     470
149.9800     459
150.0000     452
150.0200     452
150.0400     482
150.0600     511
150.0800     478
150.1000     428
150.1200     418
150.1400     426
150.1600     441
150.1800     451
150.2000     424
150.2200     386
150.2400     368
150.2600     358
150.2800     350
150.3000     349
150.3200     386
150.3400     431
150.3600     436
150.3800     431
150.4000     448
150.4200     468
150.4400     459
150.4600     452
150.4800     509
150.5000     571
150.5200     534
150.5400     473
150.5600     487
150.5800     520
150.6000     497
150.6200     465
150.6400     506
150.6600     570
150.6800     604
150.7000     614
150.7200     566
150.7400     498
150.7600     450
150.7800     425
150.8000     473
150.8200     538
150.8400     540
150.8600     510
150.8800     450
150.9000     407
150.9200     509
150.9400     640
150.9600     629
150.9800     567
151.0000     534
151.0200     524
151.0400     574
151.0600     635
151.0800     636
151.1000     604
151.1200     532
151.1400     468
151.1600     526
151.1800     614
151.2000     612
151.2200     586
151.2400     625
151.2600     672
151.2800     632
151.3000     570
151.3200     568
151.3400     593
151.3600     630
151.3800     659
151.4000     626
151.4200     585
151.4400     629
151.4600     698
151.4800     719
151.5000     713
151.5200     667
151.5400     616
151.5600     620
151.5800     647
151.6000     684
151.6200     715
151.6400     704
151.6600     675
151.6800     641
151.7000     621
151.7200     678
151.7400     749
151.7600     733
151.7800     692
151.8000     693
151.8200     716
151.8400     765
151.8600     809
151.8800     773
151.9000     723
151.9200     758
151.9400     820
151.9600     842
151.9800     846
152.0000     840
152.0200     831
152.0400     829
152.0600     827
152.0800     813
152.1000     805
152.1200     845
152.1400     897
152.1600     909
152.1800     905
152.2000     900
152.2200     906
152.2400     972
152.2600    1039
152.2800     992
152.3000     911
152.3200     880
152.3400     880
152.3600     932
152.3800     986
152.4000     950
152.4200     906
152.4400    1002
152.4600    1135
152.4800    1173
152.5000    1162
152.5200    1098
152.5400    1032
152.5600    1067
152.5800    1149
152.6000    1260
152.6200    1352
152.6400    1299
152.6600    1204
152.6800    1194
152.7000    1212
152.7200    1198
152.7400    1184
152.7600    1230
152.7800    1300
152.8000    1367
152.8200    1424
152.8400    1439
152.8600    1433
152.8800    1409
152.9000    1392
152.9200    1452
152.9400    1523
152.9600    1500
152.9800    1455
153.0000    1480
153.0200    1518
153.0400    1474
153.0600    1414
153.0800    1431
153.1000    1467
153.1200    1445
153.1400    1421
153.1600    1510
153.1800    1645
153.2000    1782
153.2200    1899
153.2400    1916
153.2600    1877
153.2800    1761
153.3000    1641
153.3200    1653
153.3400    1748
153.3600    1998
153.3800    2248
153.4000    2191
153.4200    2027
153.4400    1940
153.4600    1905
153.4800    1973
153.5000    2059
153.5200    2022
153.5400    1967
153.5600    2072
153.5800    2211
153.6000    2203
153.6200    2146
153.6400    2136
153.6600    2158
153.6800    2248
153.7000    2333
153.7200    2251
153.7400    2143
153.7600    2235
153.7800    2374
153.8000    2348
153.8200    2275
153.8400    2294
153.8600    2326
153.8800    2236
153.9000    2119
153.9200    2107
153.9400    2150
153.9600    2258
153.9800    2362
154.0000    2313
154.0200    2222
154.0400    2231
154.0600    2280
154.0800    2334
154.1000    2387
154.1200    2423
154.1400    2462
154.1600    2543
154.1800    2606
154.2000    2497
154.2200    2337
154.2400    2269
154.2600    2244
154.2800    2256
154.3000    2283
154.3200    2315
154.3400    2335
154.3600    2290
154.3800    2241
154.4000    2310
154.4200    2398
154.4400    2346
154.4600    2272
154.4800    2367
154.5000    2516
154.5200    2600
154.5400    2640
154.5600    2590
154.5800    2496
154.6000    2367
154.6200    2252
154.6400    2285
154.6600    2363
154.6800    2368
154.7000    2335
154.7200    2255
154.7400    2173
154.7600    2173
154.7800    2193
154.8000    2153
154.8200    2103
154.8400    2121
154.8600    2169
154.8800    2224
154.9000    2275
154.9200    2296
154.9400    2315
154.9600    2391
154.9800    2463
155.0000    2406
155.0200    2315
155.0400    2309
155.0600    2310
155.0800    2175
155.1000    2013
155.1200    1994
155.1400    2029
155.1600    2051
155.1800    2059
155.2000    2027
155.2200    1980
155.2400    1941
155.2600    1909
155.2800    1894
155.3000    1888
155.3200    1894
155.3400    1896
155.3600    1858
155.3800    1806
155.4000    1764
155.4200    1743
155.4400    1810
155.4600    1878
155.4800    1774
155.5000    1637
155.5200    1675
155.5400    1755
155.5600    1695
155.5800    1591
155.6000    1544
155.6200    1522
155.6400    1508
155.6600    1501
155.6800    1509
155.7000    1527
155.7200    1562
155.7400    1591
155.7600    1560
155.7800    1512
155.8000    1504
155.8200    1508
155.8400    1494
155.8600    1478
155.8800    1495
155.9000    1507
155.9200    1426
155.9400    1324
155.9600    1307
155.9800    1322
156.0000    1334
156.0200    1331
156.0400    1266
156.0600    1203
156.0800    1275
156.1000    1378
156.1200    1366
156.1400    1316
156.1600    1306
156.1800    1310
156.2000    1306
156.2200    1300
156.2400    1302
156.2600    1295
156.2800    1223
156.3000    1133
156.3200    1085
156.3400    1057
156.3600    1049
156.3800    1052
156.4000    1070
156.4200    1084
156.4400    1046
156.4600    1010
156.4800    1084
156.5000    1176
156.5200    1135
156.5400    1065
156.5600    1120
156.5800    1188
156.6000    1076
156.6200     911
156.6400     841
156.6600     821
156.6800     861
156.7000     912
156.7200     900
156.7400     860
156.7600     815
156.7800     785
156.8000     843
156.8200     923
156.8400     931
156.8600     907
156.8800     858
156.9000     815
156.9200     847
156.9400     892
156.9600     850
156.9800     796
157.0000     847
157.0200     922
157.0400     900
157.0600     838
157.0800     765
157.1000     688
157.1200     621
157.1400     584
157.1600     685
157.1800     810
157.2000     780
157.2200     695
157.2400     644
157.2600     612
157.2800     613
157.3000     628
157.3200     645
157.3400     654
157.3600     618
157.3800     574
157.4000     583
157.4200     613
157.4400     643
157.4600     669
157.4800     673
157.5000     669
157.5200     665
157.5400     654
157.5600     603
157.5800     552
157.6000     578
157.6200     625
157.6400     629
157.6600     623
157.6800     658
157.7000     702
157.7200     701
157.7400     674
157.7600     604
157.7800     536
157.8000     566
157.8200     630
157.8400     664
157.8600     680
157.8800     664
157.9000     638
157.9200     619
157.9400     616
157.9600     678
157.9800     737
158.0000     649
158.0200     526
158.0400     518
158.0600     549
158.0800     547
158.1000     532
158.1200     522
158.1400     514
158.1600     509
158.1800     513
158.2000     557
158.2200     603
158.2400     579
158.2600     531
158.2800     502
158.3000     480
158.3200     458
158.3400     448
158.3600     499
158.3800     562
158.4000     557
158.4200     524
158.4400     488
158.4600     459
158.4800     478
158.5000     510
158.5200     510
158.5400     499
158.5600     488
158.5800     475
158.6000     447
158.6200     430
158.6400     498
158.6600     585
158.6800     595
158.7000     571
158.7200     527
158.7400     479
158.7600     450
158.7800     434
158.8000     449
158.8200     468
158.8400     439
158.8600     403
158.8800     425
158.9000     458
158.9200     424
158.9400     388
158.9600     469
158.9800     575
159.0000     574
159.0200     525
159.0400     450
159.0600     377
159.0800     370
159.1000     383
159.1200     358
159.1400     327
159.1600     344
159.1800     380
159.2000     416
159.2200     450
159.2400     469
159.2600     480
159.2800     474
159.3000     454
159.3200     393
159.3400     336
159.3600     389
159.3800     466
159.4000     450
159.4200     403
159.4400     396
159.4600     400
159.4800     384
159.5000     362
159.5200     350
159.5400     344
159.5600     346
159.5800     353
159.6000     365
159.6200     372
159.6400     341
159.6600     303
159.6800     310
159.7000     338
159.7200     389
159.7400     434
159.7600     404
159.7800     359
159.8000     389
159.8200     441
159.8400     450
159.8600     454
159.8800     521
159.9000     587
159.9200     523
159.9400     416
159.9600     354
159.9800     325
160.0000     368
160.0200     426
160.0400     414
160.0600     376
160.0800     346
160.1000     322
160.1200     308
160.1400     300
160.1600     304
160.1800     321
160.2000     383
160.2200     441
160.2400     387
160.2600     303
160.2800     286
160.3000     295
160.3200     304
160.3400     314
160.3600     334
160.3800     360
160.4000     398
160.4200     423
160.4400     364
160.4600     292
160.4800     317
160.5000     374
160.5200     396
160.5400     401
160.5600     393
160.5800     375
160.6000     338
160.6200     297
160.6400     271
160.6600     256
160.6800     266
160.7000     281
160.7200     268
160.7400     248
160.7600     246
160.7800     258
160.8000     298
160.8200     334
160.8400     290
160.8600     235
160.8800     282
160.9000     359
160.9200     383
160.9400     383
160.9600     376
160.9800     370
161.0000     386
161.0200     404
161.0400     390
161.0600     369
161.0800     370
161.1000     383
161.1200     416
161.1400     441
161.1600     389
161.1800     328
161.2000     372
161.2200     439
161.2400     411
161.2600     350
161.2800     312
161.3000     298
161.3200     354
161.3400     416
161.3600     367
161.3800     289
161.4000     292
161.4200     321
161.4400     312
161.4600     289
161.4800     274
161.5000     259
161.5200     229
161.5400     208
161.5600     257
161.5800     329
161.6000     371
161.6200     391
161.6400     363
161.6600     314
161.6800     260
161.7000     222
161.7200     274
161.7400     344
161.7600     326
161.7800     284
161.8000     302
161.8200     339
161.8400     356
161.8600     355
161.8800     312
161.9000     263
161.9200     266
161.9400     289
161.9600     307
161.9800     322