File: XRD_Tool/XRD_Tool/bin/Debug/LDA_sample_name_56789_Psi-0_20180623-125423.txt
138.0000     295
138.0200     276
138.0400     217
138.0600     162
138.0800     215
138.1000     294
138.1200     285
138.1400     245
138.1600     228
138.1800     221
138.2000     216
138.2200     216
138.2400     238
138.2600     263
138.2800     263
138.3000     247
138.3200     204
138.3400     168
138.3600     220
138.3800     291
138.4000     274
138.4200     230
138.4400     226
138.4600     238
138.4800     250
138.5000     255
138.5200     228
138.5400     191
138.5600     164
138.5800     151
138.6000     183
138.6200     229
138.6400     253
138.6600     263
138.6800     242
138.7000     217
138.7200     240
138.7400     274
138.7600     268
138.7800     252
138.8000     268
138.8200     293
138.8400     305
138.8600     309
138.8800     306
138.9000     293
138.9200     245
138.9400     195
138.9600     205
138.9800     238
139.0000     266
139.0200     290
139.0400     306
139.0600     319
139.0800     339
139.1000     350
139.1200     311
139.1400     264
139.1600     285
139.1800     319
139.2000     283
139.2200     228
139.2400     215
139.2600     218
139.2800     218
139.3000     214
139.3200     203
139.3400     192
139.3600     198
139.3800     217
139.4000     271
139.4200     327
139.4400     326
139.4600     300
139.4800     263
139.5000     226
139.5200     215
139.5400     224
139.5600     273
139.5800     329
139.6000     335
139.6200     321
139.6400     305
139.6600     288
139.6800     263
139.7000     237
139.7200     224
139.7400     229
139.7600     296
139.7800     366
139.8000     328
139.8200     258
139.8400     253
139.8600     272
139.8800     284
139.9000     288
139.9200     262
139.9400     232
139.9600     239
139.9800     257
140.0000     260
140.0200     254
140.0400     241
140.0600     226
140.0800     213
140.1000     221
140.1200     329
140.1400     441
140.1600     375
140.1800     258
140.2000     247
140.2200     268
140.2400     233
140.2600     192
140.2800     241
140.3000     301
140.3200     244
140.3400     152
140.3600     120
140.3800     124
140.4000     183
140.4200     252
140.4400     253
140.4600     233
140.4800     243
140.5000     263
140.5200     274
140.5400     284
140.5600     301
140.5800     310
140.6000     267
140.6200     207
140.6400     166
140.6600     145
140.6800     194
140.7000     256
140.7200     251
140.7400     223
140.7600     215
140.7800     220
140.8000     245
140.8200     268
140.8400     238
140.8600     195
140.8800     199
140.9000     212
140.9200     181
140.9400     146
140.9600     176
140.9800     221
141.0000     210
141.0200     183
141.0400     191
141.0600     215
141.0800     250
141.1000     282
141.1200     271
141.1400     249
141.1600     255
141.1800     275
141.2000     302
141.2200     333
141.2400     372
141.2600     409
141.2800     418
141.3000     413
141.3200     393
141.3400     363
141.3600     314
141.3800     265
141.4000     251
141.4200     260
141.4400     313
141.4600     362
141.4800     309
141.5000     231
141.5200     235
141.5400     267
141.5600     282
141.5800     283
141.6000     244
141.6200     202
141.6400     218
141.6600     258
141.6800     295
141.7000     314
141.7200     246
141.7400     172
141.7600     236
141.7800     333
141.8000     314
141.8200     259
141.8400     262
141.8600     275
141.8800     221
141.9000     155
141.9200     156
141.9400     188
141.9600     242
141.9800     300
142.0000     339
142.0200     366
142.0400     367
142.0600     357
142.0800     350
142.1000     352
142.1200     392
142.1400     436
142.1600     420
142.1800     379
142.2000     333
142.2200     290
142.2400     269
142.2600     265
142.2800     304
142.3000     349
142.3200     339
142.3400     311
142.3600     300
142.3800     295
142.4000     285
142.4200     280
142.4400     312
142.4600     342
142.4800     295
142.5000     235
142.5200     263
142.5400     311
142.5600     274
142.5800     225
142.6000     278
142.6200     347
142.6400     292
142.6600     205
142.6800     202
142.7000     225
142.7200     216
142.7400     207
142.7600     265
142.7800     340
142.8000     368
142.8200     373
142.8400     353
142.8600     320
142.8800     270
142.9000     236
142.9200     309
142.9400     398
142.9600     355
142.9800     278
143.0000     291
143.0200     323
143.0400     267
143.0600     195
143.0800     223
143.1000     283
143.1200     306
143.1400     314
143.1600     321
143.1800     318
143.2000     271
143.2200     221
143.2400     241
143.2600     291
143.2800     346
143.3000     389
143.3200     357
143.3400     303
143.3600     287
143.3800     293
143.4000     324
143.4200     360
143.4400     368
143.4600     359
143.4800     328
143.5000     289
143.5200     250
143.5400     222
143.5600     246
143.5800     294
143.6000     365
143.6200     432
143.6400     434
143.6600     409
143.6800     376
143.7000     345
143.7200     337
143.7400     340
143.7600     346
143.7800     355
143.8000     366
143.8200     383
143.8400     425
143.8600     458
143.8800     398
143.9000     311
143.9200     284
143.9400     290
143.9600     349
143.9800     411
144.0000     378
144.0200     320
144.0400     320
144.0600     341
144.0800     347
144.1000     349
144.1200     356
144.1400     364
144.1600     362
144.1800     362
144.2000     394
144.2200     423
144.2400     380
144.2600     316
144.2800     289
144.3000     278
144.3200     270
144.3400     271
144.3600     305
144.3800     345
144.4000     340
144.4200     318
144.4400     294
144.4600     273
144.4800     266
144.5000     270
144.5200     305
144.5400     343
144.5600     330
144.5800     299
144.6000     283
144.6200     280
144.6400     317
144.6600     364
144.6800     388
144.7000     396
144.7200     374
144.7400     341
144.7600     314
144.7800     294
144.8000     294
144.8200     304
144.8400     319
144.8600     336
144.8800     345
144.9000     347
144.9200     334
144.9400     317
144.9600     313
144.9800     320
145.0000     349
145.0200     374
145.0400     339
145.0600     285
145.0800     261
145.1000     251
145.1200     249
145.1400     253
145.1600     265
145.1800     287
145.2000     338
145.2200     387
145.2400     376
145.2600     348
145.2800     360
145.3000     372
145.3200     307
145.3400     226
145.3600     215
145.3800     234
145.4000     256
145.4200     279
145.4400     294
145.4600     307
145.4800     328
145.5000     352
145.5200     373
145.5400     383
145.5600     343
145.5800     292
145.6000     284
145.6200     291
145.6400     280
145.6600     265
145.6800     265
145.7000     272
145.7200     285
145.7400     300
145.7600     305
145.7800     316
145.8000     374
145.8200     430
145.8400     384
145.8600     315
145.8800     331
145.9000     366
145.9200     326
145.9400     268
145.9600     268
145.9800     289
146.0000     292
146.0200     294
146.0400     326
146.0600     361
146.0800     353
146.1000     334
146.1200     355
146.1400     383
146.1600     373
146.1800     351
146.2000     352
146.2200     362
146.2400     369
146.2600     369
146.2800     342
146.3000     311
146.3200     312
146.3400     320
146.3600     303
146.3800     280
146.4000     285
146.4200     313
146.4400     398
146.4600     482
146.4800     444
146.5000     371
146.5200     365
146.5400     374
146.5600     326
146.5800     273
146.6000     303
146.6200     355
146.6400     342
146.6600     318
146.6800     366
146.7000     418
146.7200     353
146.7400     270
146.7600     331
146.7800     433
146.8000     456
146.8200     447
146.8400     428
146.8600     399
146.8800     337
146.9000     279
146.9200     309
146.9400     365
146.9600     373
146.9800     368
147.0000     396
147.0200     418
147.0400     340
147.0600     244
147.0800     258
147.1000     311
147.1200     337
147.1400     350
147.1600     343
147.1800     343
147.2000     410
147.2200     479
147.2400     423
147.2600     336
147.2800     345
147.3000     390
147.3200     415
147.3400     431
147.3600     437
147.3800     432
147.4000     394
147.4200     349
147.4400     337
147.4600     340
147.4800     346
147.5000     349
147.5200     327
147.5400     314
147.5600     393
147.5800     488
147.6000     480
147.6200     436
147.6400     425
147.6600     426
147.6800     419
147.7000     411
147.7200     418
147.7400     435
147.7600     475
147.7800     507
147.8000     446
147.8200     367
147.8400     386
147.8600     436
147.8800     443
147.9000     443
147.9200     493
147.9400     545
147.9600     512
147.9800     453
148.0000     442
148.0200     438
148.0400     374
148.0600     304
148.0800     321
148.1000     364
148.1200     364
148.1400     350
148.1600     361
148.1800     375
148.2000     359
148.2200     340
148.2400     364
148.2600     394
148.2800     364
148.3000     326
148.3200     368
148.3400     428
148.3600     418
148.3800     380
148.4000     344
148.4200     316
148.4400     330
148.4600     362
148.4800     405
148.5000     442
148.5200     423
148.5400     391
148.5600     414
148.5800     444
148.6000     407
148.6200     351
148.6400     332
148.6600     330
148.6800     341
148.7000     357
148.7200     373
148.7400     382
148.7600     355
148.7800     326
148.8000     365
148.8200     423
148.8400     441
148.8600     443
148.8800     445
148.9000     443
148.9200     419
148.9400     397
148.9600     420
148.9800     454
149.0000     445
149.0200     421
149.0400     410
149.0600     411
149.0800     449
149.1000     492
149.1200     492
149.1400     485
149.1600     533
149.1800     583
149.2000     533
149.2200     458
149.2400     458
149.2600     482
149.2800     481
149.3000     470
149.3200     464
149.3400     457
149.3600     435
149.3800     412
149.4000     414
149.4200     424
149.4400     424
149.4600     420
149.4800     419
149.5000     416
149.5200     395
149.5400     384
149.5600     460
149.5800     553
149.6000     561
149.6200     536
149.6400     521
149.6600     501
149.6800     443
149.7000     377
149.7200     352
149.7400     353
149.7600     398
149.7800     455
149.8000     487
149.8200     498
149.8400     457
149.8600     401
149.8800     375
149.9000     367
149.9200     387
149.9400     417
149.9600     437
149.9800     451
150.0000     450
150.0200     450
150.0400     477
150.0600     504
150.0800     476
150.1000     437
150.1200     456
150.1400     488
150.1600     472
150.1800     438
150.2000     412
150.2200     404
150.2400     464
150.2600     533
150.2800     504
150.3000     451
150.3200     473
150.3400     510
150.3600     475
150.3800     420
150.4000     405
150.4200     408
150.4400     413
150.4600     422
150.4800     451
150.5000     488
150.5200     528
150.5400     550
150.5600     470
150.5800     377
150.6000     418
150.6200     506
150.6400     564
150.6600     602
150.6800     605
150.7000     596
150.7200     604
150.7400     614
150.7600     607
150.7800     599
150.8000     618
150.8200     633
150.8400     578
150.8600     511
150.8800     531
150.9000     578
150.9200     590
150.9400     598
150.9600     657
150.9800     717
151.0000     674
151.0200     605
151.0400     614
151.0600     643
151.0800     616
151.1000     578
151.1200     605
151.1400     650
151.1600     662
151.1800     657
151.2000     637
151.2200     627
151.2400     702
151.2600     786
151.2800     752
151.3000     690
151.3200     729
151.3400     795
151.3600     790
151.3800     754
151.4000     713
151.4200     686
151.4400     747
151.4600     822
151.4800     787
151.5000     733
151.5200     797
151.5400     887
151.5600     864
151.5800     807
151.6000     805
151.6200     820
151.6400     808
151.6600     796
151.6800     836
151.7000     883
151.7200     863
151.7400     822
151.7600     806
151.7800     806
151.8000     833
151.8200     868
151.8400     893
151.8600     912
151.8800     924
151.9000     938
151.9200     969
151.9400     996
151.9600     969
151.9800     932
152.0000     945
152.0200     975
152.0400     987
152.0600     984
152.0800     944
152.1000     907
152.1200     957
152.1400    1021
152.1600     985
152.1800     920
152.2000     908
152.2200     922
152.2400     954
152.2600     993
152.2800    1024
152.3000    1057
152.3200    1118
152.3400    1185
152.3600    1226
152.3800    1247
152.4000    1226
152.4200    1189
152.4400    1157
152.4600    1126
152.4800    1090
152.5000    1077
152.5200    1191
152.5400    1337
152.5600    1395
152.5800    1412
152.6000    1407
152.6200    1402
152.6400    1442
152.6600    1486
152.6800    1458
152.7000    1425
152.7200    1504
152.7400    1612
152.7600    1640
152.7800    1637
152.8000    1639
152.8200    1657
152.8400    1743
152.8600    1847
152.8800    1899
152.9000    1925
152.9200    1921
152.9400    1919
152.9600    1986
152.9800    2063
153.0000    2060
153.0200    2005
153.0400    1853
153.0600    1712
153.0800    1813
153.1000    1974
153.1200    1953
153.1400    1893
153.1600    2001
153.1800    2145
153.2000    2128
153.2200    2063
153.2400    2083
153.2600    2120
153.2800    2073
153.3000    2001
153.3200    1968
153.3400    1977
153.3600    2126
153.3800    2312
153.4000    2406
153.4200    2436
153.4400    2328
153.4600    2209
153.4800    2317
153.5000    2483
153.5200    2494
153.5400    2469
153.5600    2579
153.5800    2706
153.6000    2648
153.6200    2529
153.6400    2475
153.6600    2490
153.6800    2720
153.7000    2963
153.7200    2839
153.7400    2620
153.7600    2654
153.7800    2773
153.8000    2804
153.8200    2799
153.8400    2792
153.8600    2778
153.8800    2733
153.9000    2698
153.9200    2783
153.9400    2875
153.9600    2769
153.9800    2615
154.0000    2622
154.0200    2667
154.0400    2572
154.0600    2456
154.0800    2508
154.1000    2625
154.1200    2724
154.1400    2786
154.1600    2698
154.1800    2590
154.2000    2680
154.2200    2813
154.2400    2759
154.2600    2641
154.2800    2572
154.3000    2543
154.3200    2622
154.3400    2731
154.3600    2773
154.3800    2765
154.4000    2632
154.4200    2467
154.4400    2389
154.4600    2372
154.4800    2488
154.5000    2647
154.5200    2753
154.5400    2804
154.5600    2688
154.5800    2525
154.6000    2455
154.6200    2428
154.6400    2421
154.6600    2417
154.6800    2385
154.7000    2331
154.7200    2230
154.7400    2138
154.7600    2183
154.7800    2280
154.8000    2365
154.8200    2422
154.8400    2364
154.8600    2285
154.8800    2328
154.9000    2406
154.9200    2417
154.9400    2405
154.9600    2410
154.9800    2395
155.0000    2248
155.0200    2096
155.0400    2181
155.0600    2308
155.0800    2170
155.1000    1964
155.1200    1951
155.1400    1997
155.1600    1953
155.1800    1884
155.2000    1865
155.2200    1866
155.2400    1859
155.2600    1842
155.2800    1790
155.3000    1752
155.3200    1855
155.3400    1983
155.3600    1950
155.3800    1855
155.4000    1775
155.4200    1718
155.4400    1746
155.4600    1794
155.4800    1772
155.5000    1713
155.5200    1609
155.5400    1492
155.5600    1405
155.5800    1340
155.6000    1330
155.6200    1356
155.6400    1450
155.6600    1556
155.6800    1580
155.7000    1562
155.7200    1491
155.7400    1416
155.7600    1428
155.7800    1464
155.8000    1453
155.8200    1431
155.8400    1447
155.8600    1465
155.8800    1412
155.9000    1327
155.9200    1232
155.9400    1156
155.9600    1200
155.9800    1279
156.0000    1293
156.0200    1274
156.0400    1223
156.0600    1158
156.0800    1083
156.1000    1026
156.1200    1072
156.1400    1157
156.1600    1226
156.1800    1266
156.2000    1199
156.2200    1113
156.2400    1144
156.2600    1205
156.2800    1181
156.3000    1122
156.3200    1059
156.3400     993
156.3600     917
156.3800     857
156.4000     892
156.4200     962
156.4400    1012
156.4600    1039
156.4800     989
156.5000     914
156.5200     863
156.5400     837
156.5600     894
156.5800     962
156.6000     917
156.6200     839
156.6400     824
156.6600     835
156.6800     851
156.7000     865
156.7200     859
156.7400     846
156.7600     838
156.7800     830
156.8000     812
156.8200     792
156.8400     779
156.8600     761
156.8800     703
156.9000     649
156.9200     698
156.9400     767
156.9600     728
156.9800     670
157.0000     737
157.0200     831
157.0400     815
157.0600     767
157.0800     779
157.1000     802
157.1200     762
157.1400     703
157.1600     684
157.1800     680
157.2000     678
157.2200     683
157.2400     726
157.2600     762
157.2800     690
157.3000     598
157.3200     626
157.3400     680
157.3600     622
157.3800     538
157.4000     546
157.4200     588
157.4400     623
157.4600     646
157.4800     619
157.5000     578
157.5200     564
157.5400     560
157.5600     558
157.5800     558
157.6000     569
157.6200     590
157.6400     631
157.6600     676
157.6800     693
157.7000     699
157.7200     708
157.7400     710
157.7600     674
157.7800     627
157.8000     603
157.8200     592
157.8400     596
157.8600     599
157.8800     565
157.9000     524
157.9200     513
157.9400     527
157.9600     603
157.9800     688
158.0000     698
158.0200     670
158.0400     602
158.0600     531
158.0800     523
158.1000     542
158.1200     566
158.1400     590
158.1600     602
158.1800     613
158.2000     639
158.2200     662
158.2400     635
158.2600     588
158.2800     536
158.3000     495
158.3200     521
158.3400     561
158.3600     541
158.3800     501
158.4000     479
158.4200     475
158.4400     518
158.4600     561
158.4800     509
158.5000     439
158.5200     469
158.5400     527
158.5600     530
158.5800     511
158.6000     500
158.6200     487
158.6400     448
158.6600     417
158.6800     482
158.7000     566
158.7200     545
158.7400     493
158.7600     493
158.7800     507
158.8000     491
158.8200     472
158.8400     501
158.8600     526
158.8800     433
158.9000     319
158.9200     333
158.9400     388
158.9600     390
158.9800     382
159.0000     434
159.0200     495
159.0400     481
159.0600     446
159.0800     459
159.1000     487
159.1200     490
159.1400     481
159.1600     459
159.1800     440
159.2000     464
159.2200     495
159.2400     471
159.2600     430
159.2800     411
159.3000     405
159.3200     422
159.3400     445
159.3600     450
159.3800     454
159.4000     488
159.4200     514
159.4400     443
159.4600     351
159.4800     349
159.5000     375
159.5200     359
159.5400     339
159.5600     374
159.5800     425
159.6000     439
159.6200     434
159.6400     404
159.6600     363
159.6800     317
159.7000     291
159.7200     375
159.7400     480
159.7600     467
159.7800     407
159.8000     345
159.8200     296
159.8400     309
159.8600     341
159.8800     346
159.9000     334
159.9200     292
159.9400     256
159.9600     312
159.9800     383
160.0000     349
160.0200     293
160.0400     339
160.0600     414
160.0800     434
160.1000     430
160.1200     416
160.1400     392
160.1600     341
160.1800     294
160.2000     320
160.2200     378
160.2400     443
160.2600     493
160.2800     455
160.3000     386
160.3200     343
160.3400     320
160.3600     341
160.3800     373
160.4000     380
160.4200     381
160.4400     407
160.4600     441
160.4800     468
160.5000     480
160.5200     432
160.5400     369
160.5600     351
160.5800     351
160.6000     351
160.6200     346
160.6400     316
160.6600     284
160.6800     292
160.7000     312
160.7200     307
160.7400     294
160.7600     284
160.7800     284
160.8000     321
160.8200     364
160.8400     365
160.8600     341
160.8800     274
160.9000     211
160.9200     256
160.9400     329
160.9600     324
160.9800     289
161.0000     257
161.0200     244
161.0400     314
161.0600     401
161.0800     400
161.1000     362
161.1200     312
161.1400     269
161.1600     279
161.1800     307
161.2000     310
161.2200     303
161.2400     288
161.2600     272
161.2800     266
161.3000     270
161.3200     304
161.3400     345
161.3600     362
161.3800     372
161.4000     392
161.4200     409
161.4400     390
161.4600     349
161.4800     278
161.5000     212
161.5200     236
161.5400     291
161.5600     324
161.5800     345
161.6000     346
161.6200     338
161.6400     317
161.6600     293
161.6800     282
161.7000     280
161.7200     295
161.7400     315
161.7600     330
161.7800     344
161.8000     370
161.8200     387
161.8400     344
161.8600     291
161.8800     315
161.9000     352
161.9200     305
161.9400     237
161.9600     224
161.9800     235