File: XRD_Tool/XRD_Tool/bin/Debug/LDA_sample_name_56789_Psi-0_20180622-235655.txt
138.0000     305
138.0200     274
138.0400     248
138.0600     227
138.0800     219
138.1000     219
138.1200     229
138.1400     240
138.1600     235
138.1800     227
138.2000     242
138.2200     258
138.2400     231
138.2600     195
138.2800     199
138.3000     210
138.3200     176
138.3400     137
138.3600     166
138.3800     217
138.4000     240
138.4200     249
138.4400     248
138.4600     244
138.4800     248
138.5000     255
138.5200     257
138.5400     244
138.5600     163
138.5800      76
138.6000      94
138.6200     151
138.6400     193
138.6600     224
138.6800     231
138.7000     225
138.7200     196
138.7400     171
138.7600     214
138.7800     270
138.8000     251
138.8200     203
138.8400     157
138.8600     126
138.8800     173
138.9000     244
138.9200     275
138.9400     288
138.9600     288
138.9800     267
139.0000     169
139.0200      73
139.0400     134
139.0600     240
139.0800     259
139.1000     246
139.1200     248
139.1400     257
139.1600     273
139.1800     288
139.2000     291
139.2200     279
139.2400     212
139.2600     137
139.2800     124
139.3000     136
139.3200     153
139.3400     174
139.3600     210
139.3800     240
139.4000     210
139.4200     171
139.4400     209
139.4600     257
139.4800     210
139.5000     135
139.5200     115
139.5400     120
139.5600     138
139.5800     161
139.6000     177
139.6200     184
139.6400     155
139.6600     119
139.6800     126
139.7000     151
139.7200     179
139.7400     207
139.7600     224
139.7800     231
139.8000     216
139.8200     200
139.8400     222
139.8600     249
139.8800     220
139.9000     174
139.9200     163
139.9400     174
139.9600     228
139.9800     279
140.0000     227
140.0200     155
140.0400     191
140.0600     258
140.0800     257
140.1000     228
140.1200     195
140.1400     168
140.1600     176
140.1800     194
140.2000     192
140.2200     186
140.2400     200
140.2600     222
140.2800     244
140.3000     253
140.3200     196
140.3400     126
140.3600     129
140.3800     164
140.4000     214
140.4200     259
140.4400     251
140.4600     222
140.4800     200
140.5000     184
140.5200     189
140.5400     203
140.5600     212
140.5800     218
140.6000     214
140.6200     206
140.6400     195
140.6600     186
140.6800     195
140.7000     208
140.7200     208
140.7400     208
140.7600     238
140.7800     276
140.8000     297
140.8200     299
140.8400     240
140.8600     169
140.8800     164
140.9000     188
140.9200     219
140.9400     241
140.9600     201
140.9800     157
141.0000     211
141.0200     286
141.0400     263
141.0600     208
141.0800     191
141.1000     190
141.1200     194
141.1400     198
141.1600     189
141.1800     175
141.2000     159
141.2200     157
141.2400     225
141.2600     297
141.2800     249
141.3000     166
141.3200     148
141.3400     154
141.3600     150
141.3800     151
141.4000     197
141.4200     261
141.4400     323
141.4600     368
141.4800     325
141.5000     250
141.5200     193
141.5400     153
141.5600     163
141.5800     187
141.6000     180
141.6200     165
141.6400     175
141.6600     194
141.6800     213
141.7000     230
141.7200     242
141.7400     248
141.7600     237
141.7800     221
141.8000     215
141.8200     211
141.8400     196
141.8600     178
141.8800     170
141.9000     169
141.9200     188
141.9400     211
141.9600     221
141.9800     226
142.0000     237
142.0200     244
142.0400     216
142.0600     177
142.0800     150
142.1000     136
142.1200     164
142.1400     202
142.1600     215
142.1800     222
142.2000     256
142.2200     293
142.2400     300
142.2600     287
142.2800     242
142.3000     200
142.3200     233
142.3400     283
142.3600     260
142.3800     213
142.4000     192
142.4200     186
142.4400     199
142.4600     221
142.4800     253
142.5000     278
142.5200     248
142.5400     207
142.5600     222
142.5800     249
142.6000     220
142.6200     180
142.6400     203
142.6600     252
142.6800     304
142.7000     345
142.7200     318
142.7400     271
142.7600     262
142.7800     274
142.8000     313
142.8200     353
142.8400     343
142.8600     308
142.8800     251
142.9000     194
142.9200     181
142.9400     185
142.9600     190
142.9800     210
143.0000     297
143.0200     386
143.0400     352
143.0600     282
143.0800     285
143.1000     317
143.1200     346
143.1400     374
143.1600     402
143.1800     423
143.2000     412
143.2200     388
143.2400     361
143.2600     332
143.2800     303
143.3000     271
143.3200     227
143.3400     192
143.3600     220
143.3800     257
143.4000     206
143.4200     142
143.4400     188
143.4600     269
143.4800     303
143.5000     306
143.5200     242
143.5400     168
143.5600     169
143.5800     196
143.6000     198
143.6200     195
143.6400     219
143.6600     244
143.6800     227
143.7000     206
143.7200     249
143.7400     310
143.7600     339
143.7800     360
143.8000     403
143.8200     433
143.8400     353
143.8600     246
143.8800     225
143.9000     238
143.9200     241
143.9400     249
143.9600     294
143.9800     344
144.0000     345
144.0200     323
144.0400     276
144.0600     235
144.0800     269
144.1000     320
144.1200     303
144.1400     262
144.1600     241
144.1800     230
144.2000     236
144.2200     252
144.2400     288
144.2600     317
144.2800     276
144.3000     217
144.3200     216
144.3400     233
144.3600     225
144.3800     218
144.4000     263
144.4200     318
144.4400     316
144.4600     283
144.4800     203
144.5000     125
144.5200     147
144.5400     209
144.5600     271
144.5800     328
144.6000     360
144.6200     368
144.6400     301
144.6600     221
144.6800     221
144.7000     251
144.7200     273
144.7400     290
144.7600     302
144.7800     302
144.8000     252
144.8200     198
144.8400     226
144.8600     278
144.8800     291
144.9000     289
144.9200     287
144.9400     288
144.9600     304
144.9800     317
145.0000     285
145.0200     251
145.0400     296
145.0600     353
145.0800     318
145.1000     260
145.1200     269
145.1400     305
145.1600     342
145.1800     367
145.2000     327
145.2200     273
145.2400     279
145.2600     306
145.2800     317
145.3000     317
145.3200     302
145.3400     281
145.3600     265
145.3800     250
145.4000     230
145.4200     219
145.4400     265
145.4600     307
145.4800     224
145.5000     119
145.5200     157
145.5400     246
145.5600     302
145.5800     335
145.6000     323
145.6200     299
145.6400     303
145.6600     313
145.6800     290
145.7000     247
145.7200     170
145.7400     110
145.7600     197
145.7800     321
145.8000     338
145.8200     316
145.8400     313
145.8600     308
145.8800     258
145.9000     205
145.9200     232
145.9400     285
145.9600     311
145.9800     324
146.0000     319
146.0200     314
146.0400     344
146.0600     376
146.0800     349
146.1000     300
146.1200     256
146.1400     225
146.1600     244
146.1800     285
146.2000     333
146.2200     365
146.2400     310
146.2600     240
146.2800     270
146.3000     329
146.3200     332
146.3400     313
146.3600     302
146.3800     291
146.4000     267
146.4200     251
146.4400     307
146.4600     378
146.4800     389
146.5000     359
146.5200     251
146.5400     137
146.5600     154
146.5800     223
146.6000     287
146.6200     342
146.6400     357
146.6600     350
146.6800     310
146.7000     268
146.7200     289
146.7400     327
146.7600     320
146.7800     304
146.8000     330
146.8200     367
146.8400     382
146.8600     379
146.8800     330
146.9000     270
146.9200     250
146.9400     251
146.9600     280
146.9800     315
147.0000     323
147.0200     321
147.0400     316
147.0600     312
147.0800     316
147.1000     311
147.1200     239
147.1400     165
147.1600     208
147.1800     285
147.2000     300
147.2200     292
147.2400     293
147.2600     297
147.2800     304
147.3000     307
147.3200     283
147.3400     252
147.3600     233
147.3800     229
147.4000     277
147.4200     327
147.4400     287
147.4600     224
147.4800     231
147.5000     275
147.5200     372
147.5400     467
147.5600     447
147.5800     380
147.6000     307
147.6200     249
147.6400     281
147.6600     342
147.6800     368
147.7000     378
147.7200     383
147.7400     383
147.7600     376
147.7800     363
147.8000     330
147.8200     308
147.8400     373
147.8600     449
147.8800     406
147.9000     332
147.9200     338
147.9400     368
147.9600     358
147.9800     335
148.0000     322
148.0200     316
148.0400     320
148.0600     330
148.0800     352
148.1000     379
148.1200     414
148.1400     439
148.1600     396
148.1800     329
148.2000     277
148.2200     238
148.2400     237
148.2600     255
148.2800     293
148.3000     342
148.3200     406
148.3400     467
148.3600     482
148.3800     463
148.4000     372
148.4200     284
148.4400     356
148.4600     465
148.4800     436
148.5000     359
148.5200     317
148.5400     306
148.5600     385
148.5800     478
148.6000     464
148.6200     410
148.6400     368
148.6600     344
148.6800     393
148.7000     456
148.7200     443
148.7400     401
148.7600     372
148.7800     345
148.8000     300
148.8200     257
148.8400     260
148.8600     285
148.8800     325
148.9000     369
148.9200     403
148.9400     430
148.9600     441
148.9800     440
149.0000     417
149.0200     392
149.0400     404
149.0600     420
149.0800     389
149.1000     336
149.1200     268
149.1400     219
149.1600     294
149.1800     406
149.2000     463
149.2200     487
149.2400     459
149.2600     417
149.2800     402
149.3000     400
149.3200     413
149.3400     428
149.3600     428
149.3800     423
149.4000     421
149.4200     424
149.4400     442
149.4600     463
149.4800     467
149.5000     456
149.5200     395
149.5400     329
149.5600     331
149.5800     357
149.6000     363
149.6200     357
149.6400     331
149.6600     310
149.6800     353
149.7000     409
149.7200     410
149.7400     388
149.7600     364
149.7800     356
149.8000     428
149.8200     503
149.8400     435
149.8600     326
149.8800     304
149.9000     321
149.9200     364
149.9400     412
149.9600     430
149.9800     440
150.0000     465
150.0200     487
150.0400     459
150.0600     412
150.0800     372
150.1000     341
150.1200     343
150.1400     359
150.1600     372
150.1800     386
150.2000     410
150.2200     435
150.2400     450
150.2600     456
150.2800     444
150.3000     424
150.3200     404
150.3400     394
150.3600     435
150.3800     491
150.4000     514
150.4200     527
150.4400     553
150.4600     574
150.4800     537
150.5000     477
150.5200     422
150.5400     385
150.5600     435
150.5800     503
150.6000     496
150.6200     466
150.6400     476
150.6600     502
150.6800     526
150.7000     545
150.7200     539
150.7400     517
150.7600     465
150.7800     408
150.8000     384
150.8200     391
150.8400     483
150.8600     589
150.8800     592
150.9000     550
150.9200     491
150.9400     452
150.9600     543
150.9800     668
151.0000     695
151.0200     680
151.0400     651
151.0600     611
151.0800     536
151.1000     470
151.1200     512
151.1400     588
151.1600     613
151.1800     623
151.2000     664
151.2200     708
151.2400     702
151.2600     680
151.2800     673
151.3000     682
151.3200     734
151.3400     786
151.3600     743
151.3800     674
151.4000     660
151.4200     666
151.4400     662
151.4600     658
151.4800     676
151.5000     703
151.5200     737
151.5400     761
151.5600     725
151.5800     684
151.6000     743
151.6200     821
151.6400     802
151.6600     756
151.6800     767
151.7000     790
151.7200     756
151.7400     715
151.7600     751
151.7800     817
151.8000     886
151.8200     940
151.8400     913
151.8600     853
151.8800     794
151.9000     753
151.9200     797
151.9400     870
151.9600     913
151.9800     941
152.0000     951
152.0200     949
152.0400     930
152.0600     912
152.0800     934
152.1000     972
152.1200    1007
152.1400    1026
152.1600     972
152.1800     898
152.2000     877
152.2200     889
152.2400     961
152.2600    1048
152.2800    1088
152.3000    1107
152.3200    1108
152.3400    1109
152.3600    1143
152.3800    1195
152.4000    1264
152.4200    1321
152.4400    1283
152.4600    1219
152.4800    1220
152.5000    1249
152.5200    1295
152.5400    1339
152.5600    1344
152.5800    1340
152.6000    1363
152.6200    1394
152.6400    1408
152.6600    1419
152.6800    1442
152.7000    1480
152.7200    1571
152.7400    1666
152.7600    1673
152.7800    1653
152.8000    1674
152.8200    1700
152.8400    1666
152.8600    1636
152.8800    1745
152.9000    1881
152.9200    1877
152.9400    1837
152.9600    1897
152.9800    1981
153.0000    1990
153.0200    1960
153.0400    1890
153.0600    1832
153.0800    1916
153.1000    2031
153.1200    2021
153.1400    1976
153.1600    2011
153.1800    2068
153.2000    2078
153.2200    2079
153.2400    2123
153.2600    2163
153.2800    2088
153.3000    1984
153.3200    1962
153.3400    1982
153.3600    2054
153.3800    2157
153.4000    2316
153.4200    2452
153.4400    2355
153.4600    2196
153.4800    2194
153.5000    2264
153.5200    2384
153.5400    2514
153.5600    2594
153.5800    2635
153.6000    2584
153.6200    2494
153.6400    2396
153.6600    2332
153.6800    2458
153.7000    2637
153.7200    2703
153.7400    2711
153.7600    2659
153.7800    2595
153.8000    2591
153.8200    2607
153.8400    2608
153.8600    2591
153.8800    2521
153.9000    2468
153.9200    2613
153.9400    2786
153.9600    2706
153.9800    2560
154.0000    2597
154.0200    2689
154.0400    2690
154.0600    2658
154.0800    2651
154.1000    2658
154.1200    2693
154.1400    2737
154.1600    2770
154.1800    2784
154.2000    2733
154.2200    2666
154.2400    2657
154.2600    2650
154.2800    2537
154.3000    2407
154.3200    2408
154.3400    2467
154.3600    2548
154.3800    2623
154.4000    2623
154.4200    2583
154.4400    2495
154.4600    2409
154.4800    2438
154.5000    2506
154.5200    2547
154.5400    2564
154.5600    2511
154.5800    2446
154.6000    2458
154.6200    2482
154.6400    2416
154.6600    2325
154.6800    2289
154.7000    2265
154.7200    2193
154.7400    2114
154.7600    2100
154.7800    2116
154.8000    2152
154.8200    2191
154.8400    2208
154.8600    2202
154.8800    2128
154.9000    2051
154.9200    2097
154.9400    2171
154.9600    2132
154.9800    2050
155.0000    1978
155.0200    1927
155.0400    1966
155.0600    2023
155.0800    1995
155.1000    1947
155.1200    1967
155.1400    2002
155.1600    1970
155.1800    1917
155.2000    1888
155.2200    1876
155.2400    1904
155.2600    1946
155.2800    1981
155.3000    2002
155.3200    1968
155.3400    1920
155.3600    1910
155.3800    1906
155.4000    1852
155.4200    1791
155.4400    1795
155.4600    1797
155.4800    1656
155.5000    1486
155.5200    1459
155.5400    1485
155.5600    1488
155.5800    1484
155.6000    1492
155.6200    1490
155.6400    1419
155.6600    1353
155.6800    1444
155.7000    1571
155.7200    1563
155.7400    1501
155.7600    1441
155.7800    1389
155.8000    1377
155.8200    1379
155.8400    1376
155.8600    1350
155.8800    1226
155.9000    1088
155.9200    1080
155.9400    1121
155.9600    1148
155.9800    1173
156.0000    1213
156.0200    1254
156.0400    1270
156.0600    1268
156.0800    1226
156.1000    1160
156.1200    1049
156.1400     951
156.1600    1000
156.1800    1086
156.2000    1062
156.2200    1011
156.2400    1046
156.2600    1110
156.2800    1144
156.3000    1152
156.3200    1090
156.3400    1009
156.3600     972
156.3800     960
156.4000     991
156.4200    1026
156.4400     994
156.4600     958
156.4800    1029
156.5000    1109
156.5200    1017
156.5400     874
156.5600     816
156.5800     791
156.6000     759
156.6200     740
156.6400     793
156.6600     860
156.6800     852
156.7000     812
156.7200     760
156.7400     713
156.7600     709
156.7800     721
156.8000     723
156.8200     722
156.8400     725
156.8600     724
156.8800     703
156.9000     680
156.9200     692
156.9400     711
156.9600     698
156.9800     670
157.0000     629
157.0200     589
157.0400     577
157.0600     584
157.0800     628
157.1000     663
157.1200     583
157.1400     486
157.1600     536
157.1800     620
157.2000     585
157.2200     515
157.2400     504
157.2600     523
157.2800     577
157.3000     642
157.3200     692
157.3400     725
157.3600     706
157.3800     671
157.4000     658
157.4200     643
157.4400     578
157.4600     510
157.4800     530
157.5000     581
157.5200     609
157.5400     618
157.5600     580
157.5800     533
157.6000     531
157.6200     546
157.6400     556
157.6600     562
157.6800     556
157.7000     536
157.7200     463
157.7400     390
157.7600     424
157.7800     489
157.8000     502
157.8200     502
157.8400     539
157.8600     582
157.8800     580
157.9000     564
157.9200     568
157.9400     576
157.9600     567
157.9800     555
158.0000     561
158.0200     573
158.0400     572
158.0600     562
158.0800     535
158.1000     504
158.1200     485
158.1400     466
158.1600     424
158.1800     381
158.2000     384
158.2200     407
158.2400     434
158.2600     453
158.2800     430
158.3000     394
158.3200     378
158.3400     374
158.3600     388
158.3800     408
158.4000     418
158.4200     421
158.4400     406
158.4600     390
158.4800     402
158.5000     429
158.5200     473
158.5400     511
158.5600     487
158.5800     439
158.6000     393
158.6200     355
158.6400     359
158.6600     376
158.6800     383
158.7000     393
158.7200     443
158.7400     485
158.7600     407
158.7800     291
158.8000     223
158.8200     187
158.8400     208
158.8600     263
158.8800     376
158.9000     481
158.9200     431
158.9400     348
158.9600     407
158.9800     502
159.0000     493
159.0200     439
159.0400     364
159.0600     303
159.0800     357
159.1000     439
159.1200     436
159.1400     397
159.1600     351
159.1800     317
159.2000     355
159.2200     418
159.2400     464
159.2600     495
159.2800     481
159.3000     450
159.3200     424
159.3400     404
159.3600     402
159.3800     404
159.4000     383
159.4200     354
159.4400     333
159.4600     318
159.4800     318
159.5000     325
159.5200     336
159.5400     335
159.5600     274
159.5800     209
159.6000     249
159.6200     319
159.6400     329
159.6600     319
159.6800     327
159.7000     346
159.7200     380
159.7400     407
159.7600     371
159.7800     324
159.8000     355
159.8200     402
159.8400     369
159.8600     317
159.8800     323
159.9000     341
159.9200     294
159.9400     236
159.9600     248
159.9800     284
160.0000     302
160.0200     306
160.0400     282
160.0600     267
160.0800     357
160.1000     452
160.1200     367
160.1400     241
160.1600     278
160.1800     360
160.2000     339
160.2200     289
160.2400     302
160.2600     334
160.2800     333
160.3000     320
160.3200     312
160.3400     312
160.3600     344
160.3800     375
160.4000     342
160.4200     293
160.4400     286
160.4600     287
160.4800     246
160.5000     210
160.5200     279
160.5400     366
160.5600     328
160.5800     258
160.6000     275
160.6200     316
160.6400     303
160.6600     267
160.6800     221
160.7000     183
160.7200     204
160.7400     242
160.7600     251
160.7800     252
160.8000     265
160.8200     275
160.8400     248
160.8600     219
160.8800     255
160.9000     303
160.9200     281
160.9400     242
160.9600     258
160.9800     290
161.0000     289
161.0200     283
161.0400     319
161.0600     358
161.0800     333
161.1000     296
161.1200     321
161.1400     350
161.1600     274
161.1800     182
161.2000     222
161.2200     297
161.2400     287
161.2600     258
161.2800     305
161.3000     367
161.3200     349
161.3400     301
161.3600     260
161.3800     221
161.4000     179
161.4200     143
161.4400     150
161.4600     177
161.4800     217
161.5000     257
161.5200     262
161.5400     254
161.5600     244
161.5800     241
161.6000     272
161.6200     294
161.6400     206
161.6600      96
161.6800      99
161.7000     146
161.7200     185
161.7400     214
161.7600     208
161.7800     198
161.8000     238
161.8200     289
161.8400     300
161.8600     287
161.8800     239
161.9000     190
161.9200     208
161.9400     251
161.9600     294
161.9800     327