File: XRD_Tool/XRD_Tool/bin/Debug/LDA_sample_name_56789_Psi-0_20180603-115211.txt
137.2000     206
137.2400     215
137.2800     223
137.3200     232
137.3600     275
137.4000     256
137.4400     270
137.4800     256
137.5200     266
137.5600     252
137.6000     277
137.6400     251
137.6800     261
137.7200     273
137.7600     264
137.8000     244
137.8400     236
137.8800     264
137.9200     245
137.9600     252
138.0000     260
138.0400     257
138.0800     284
138.1200     294
138.1600     261
138.2000     266
138.2400     263
138.2800     250
138.3200     260
138.3600     253
138.4000     235
138.4400     247
138.4800     274
138.5200     259
138.5600     266
138.6000     247
138.6400     241
138.6800     271
138.7200     249
138.7600     273
138.8000     274
138.8400     279
138.8800     265
138.9200     229
138.9600     251
139.0000     291
139.0400     255
139.0800     263
139.1200     265
139.1600     261
139.2000     259
139.2400     236
139.2800     287
139.3200     249
139.3600     238
139.4000     251
139.4400     266
139.4800     280
139.5200     242
139.5600     239
139.6000     278
139.6400     262
139.6800     240
139.7200     238
139.7600     294
139.8000     232
139.8400     246
139.8800     251
139.9200     244
139.9600     268
140.0000     248
140.0400     276
140.0800     261
140.1200     268
140.1600     262
140.2000     247
140.2400     266
140.2800     292
140.3200     260
140.3600     264
140.4000     254
140.4400     239
140.4800     259
140.5200     233
140.5600     231
140.6000     243
140.6400     263
140.6800     252
140.7200     228
140.7600     285
140.8000     272
140.8400     239
140.8800     269
140.9200     272
140.9600     296
141.0000     270
141.0400     278
141.0800     282
141.1200     256
141.1600     257
141.2000     289
141.2400     273
141.2800     233
141.3200     263
141.3600     262
141.4000     236
141.4400     269
141.4800     256
141.5200     253
141.5600     242
141.6000     255
141.6400     263
141.6800     230
141.7200     284
141.7600     271
141.8000     266
141.8400     235
141.8800     296
141.9200     258
141.9600     266
142.0000     265
142.0400     244
142.0800     264
142.1200     282
142.1600     232
142.2000     288
142.2400     276
142.2800     250
142.3200     251
142.3600     260
142.4000     276
142.4400     259
142.4800     264
142.5200     278
142.5600     290
142.6000     273
142.6400     271
142.6800     276
142.7200     284
142.7600     241
142.8000     264
142.8400     281
142.8800     253
142.9200     295
142.9600     262
143.0000     264
143.0400     262
143.0800     275
143.1200     246
143.1600     275
143.2000     251
143.2400     280
143.2800     261
143.3200     270
143.3600     254
143.4000     258
143.4400     265
143.4800     291
143.5200     258
143.5600     289
143.6000     275
143.6400     234
143.6800     289
143.7200     278
143.7600     261
143.8000     252
143.8400     282
143.8800     268
143.9200     276
143.9600     245
144.0000     271
144.0400     269
144.0800     268
144.1200     245
144.1600     309
144.2000     256
144.2400     263
144.2800     273
144.3200     289
144.3600     267
144.4000     285
144.4400     280
144.4800     261
144.5200     270
144.5600     280
144.6000     275
144.6400     286
144.6800     268
144.7200     274
144.7600     302
144.8000     254
144.8400     278
144.8800     286
144.9200     257
144.9600     244
145.0000     276
145.0400     281
145.0800     299
145.1200     247
145.1600     279
145.2000     258
145.2400     273
145.2800     274
145.3200     262
145.3600     252
145.4000     266
145.4400     244
145.4800     242
145.5200     281
145.5600     257
145.6000     258
145.6400     279
145.6800     270
145.7200     259
145.7600     268
145.8000     258
145.8400     265
145.8800     262
145.9200     290
145.9600     273
146.0000     297
146.0400     267
146.0800     282
146.1200     264
146.1600     271
146.2000     290
146.2400     290
146.2800     249
146.3200     256
146.3600     293
146.4000     272
146.4400     284
146.4800     250
146.5200     254
146.5600     272
146.6000     301
146.6400     271
146.6800     262
146.7200     258
146.7600     247
146.8000     279
146.8400     282
146.8800     291
146.9200     247
146.9600     259
147.0000     279
147.0400     267
147.0800     260
147.1200     288
147.1600     298
147.2000     258
147.2400     280
147.2800     297
147.3200     269
147.3600     279
147.4000     273
147.4400     303
147.4800     251
147.5200     265
147.5600     271
147.6000     307
147.6400     279
147.6800     292
147.7200     271
147.7600     315
147.8000     288
147.8400     282
147.8800     293
147.9200     282
147.9600     275
148.0000     289
148.0400     279
148.0800     271
148.1200     311
148.1600     300
148.2000     261
148.2400     289
148.2800     286
148.3200     287
148.3600     263
148.4000     298
148.4400     308
148.4800     293
148.5200     307
148.5600     299
148.6000     292
148.6400     277
148.6800     288
148.7200     285
148.7600     294
148.8000     279
148.8400     286
148.8800     285
148.9200     316
148.9600     287
149.0000     316
149.0400     303
149.0800     290
149.1200     294
149.1600     262
149.2000     302
149.2400     275
149.2800     317
149.3200     307
149.3600     292
149.4000     299
149.4400     264
149.4800     279
149.5200     300
149.5600     304
149.6000     281
149.6400     294
149.6800     306
149.7200     302
149.7600     312
149.8000     314
149.8400     312
149.8800     319
149.9200     285
149.9600     300
150.0000     282
150.0400     303
150.0800     302
150.1200     294
150.1600     316
150.2000     309
150.2400     289
150.2800     315
150.3200     298
150.3600     321
150.4000     325
150.4400     306
150.4800     324
150.5200     289
150.5600     341
150.6000     306
150.6400     283
150.6800     299
150.7200     325
150.7600     322
150.8000     312
150.8400     310
150.8800     323
150.9200     328
150.9600     340
151.0000     320
151.0400     301
151.0800     314
151.1200     343
151.1600     313
151.2000     344
151.2400     322
151.2800     346
151.3200     364
151.3600     343
151.4000     330
151.4400     321
151.4800     316
151.5200     297
151.5600     354
151.6000     333
151.6400     347
151.6800     348
151.7200     327
151.7600     377
151.8000     352
151.8400     343
151.8800     389
151.9200     410
151.9600     368
152.0000     390
152.0400     392
152.0800     410
152.1200     401
152.1600     381
152.2000     357
152.2400     427
152.2800     373
152.3200     386
152.3600     436
152.4000     418
152.4400     426
152.4800     418
152.5200     415
152.5600     437
152.6000     450
152.6400     466
152.6800     507
152.7200     524
152.7600     533
152.8000     465
152.8400     446
152.8800     494
152.9200     547
152.9600     488
153.0000     529
153.0400     549
153.0800     516
153.1200     522
153.1600     565
153.2000     513
153.2400     533
153.2800     590
153.3200     560
153.3600     601
153.4000     596
153.4400     633
153.4800     630
153.5200     658
153.5600     689
153.6000     620
153.6400     700
153.6800     611
153.7200     745
153.7600     669
153.8000     680
153.8400     637
153.8800     753
153.9200     734
153.9600     771
154.0000     723
154.0400     748
154.0800     710
154.1200     759
154.1600     780
154.2000     788
154.2400     742
154.2800     754
154.3200     772
154.3600     732
154.4000     753
154.4400     778
154.4800     746
154.5200     783
154.5600     795
154.6000     770
154.6400     748
154.6800     750
154.7200     708
154.7600     720
154.8000     721
154.8400     705
154.8800     716
154.9200     788
154.9600     765
155.0000     710
155.0400     743
155.0800     747
155.1200     752
155.1600     776
155.2000     715
155.2400     680
155.2800     745
155.3200     689
155.3600     726
155.4000     667
155.4400     652
155.4800     689
155.5200     634
155.5600     641
155.6000     595
155.6400     650
155.6800     598
155.7200     639
155.7600     607
155.8000     622
155.8400     587
155.8800     619
155.9200     553
155.9600     582
156.0000     553
156.0400     543
156.0800     549
156.1200     548
156.1600     533
156.2000     587
156.2400     516
156.2800     536
156.3200     477
156.3600     501
156.4000     484
156.4400     522
156.4800     519
156.5200     474
156.5600     495
156.6000     491
156.6400     446
156.6800     470
156.7200     461
156.7600     473
156.8000     449
156.8400     436
156.8800     418
156.9200     412
156.9600     421
157.0000     419
157.0400     403
157.0800     455
157.1200     409
157.1600     372
157.2000     383
157.2400     354
157.2800     382
157.3200     390
157.3600     386
157.4000     372
157.4400     396
157.4800     404
157.5200     358
157.5600     372
157.6000     367
157.6400     339
157.6800     381
157.7200     403
157.7600     373
157.8000     384
157.8400     372
157.8800     373
157.9200     366
157.9600     391
158.0000     369
158.0400     359
158.0800     343
158.1200     356
158.1600     361
158.2000     348
158.2400     308
158.2800     346
158.3200     336
158.3600     311
158.4000     357
158.4400     335
158.4800     315
158.5200     311
158.5600     367
158.6000     317
158.6400     321
158.6800     292
158.7200     330
158.7600     322
158.8000     347
158.8400     328
158.8800     331
158.9200     326
158.9600     323
159.0000     341
159.0400     334
159.0800     341
159.1200     335
159.1600     298
159.2000     305
159.2400     313
159.2800     300
159.3200     329
159.3600     303
159.4000     322
159.4400     325
159.4800     291
159.5200     300
159.5600     288
159.6000     293
159.6400     295
159.6800     313
159.7200     297
159.7600     300
159.8000     327
159.8400     287
159.8800     324
159.9200     298
159.9600     299
160.0000     318
160.0400     292
160.0800     309
160.1200     303
160.1600     248
160.2000     289
160.2400     278
160.2800     294
160.3200     284
160.3600     311
160.4000     285
160.4400     268
160.4800     304
160.5200     245
160.5600     288
160.6000     284
160.6400     279
160.6800     287
160.7200     305
160.7600     282
160.8000     260
160.8400     287
160.8800     291
160.9200     278
160.9600     298
161.0000     282
161.0400     299
161.0800     264
161.1200     286
161.1600     279
161.2000     276
161.2400     298
161.2800     297
161.3200     298
161.3600     288
161.4000     282
161.4400     275
161.4800     283
161.5200     279
161.5600     278
161.6000     287
161.6400     282
161.6800     262
161.7200     274
161.7600     263
161.8000     277
161.8400     278
161.8800     265
161.9200     294
161.9600     280
162.0000     287
162.0400     257
162.0800     272
162.1200     253
162.1600     272
162.2000     284
162.2400     264
162.2800     239
162.3200     262
162.3600     241
162.4000     273
162.4400     267
162.4800     257
162.5200     254
162.5600     266
162.6000     274
162.6400     253
162.6800     272
162.7200     254
162.7600     245