File: XRD_Tool/XRD_Tool/bin/Debug/LDA_sample_name_56789_Psi-0_20180623-123813.txt
138.0000     282
138.0200     319
138.0400     306
138.0600     271
138.0800     231
138.1000     195
138.1200     192
138.1400     194
138.1600     155
138.1800     121
138.2000     198
138.2200     303
138.2400     323
138.2600     306
138.2800     271
138.3000     238
138.3200     252
138.3400     280
138.3600     289
138.3800     280
138.4000     213
138.4200     143
138.4400     175
138.4600     236
138.4800     245
138.5000     237
138.5200     251
138.5400     265
138.5600     237
138.5800     195
138.6000     165
138.6200     144
138.6400     150
138.6600     166
138.6800     182
138.7000     200
138.7200     229
138.7400     260
138.7600     275
138.7800     270
138.8000     200
138.8200     118
138.8400     109
138.8600     131
138.8800     160
138.9000     197
138.9200     260
138.9400     321
138.9600     316
138.9800     281
139.0000     236
139.0200     187
139.0400     141
139.0600     109
139.0800     134
139.1000     175
139.1200     181
139.1400     180
139.1600     217
139.1800     259
139.2000     249
139.2200     217
139.2400     174
139.2600     135
139.2800     141
139.3000     164
139.3200     182
139.3400     199
139.3600     224
139.3800     247
139.4000     247
139.4200     239
139.4400     241
139.4600     237
139.4800     181
139.5000     120
139.5200     131
139.5400     164
139.5600     163
139.5800     164
139.6000     239
139.6200     319
139.6400     280
139.6600     215
139.6800     254
139.7000     315
139.7200     281
139.7400     222
139.7600     233
139.7800     262
139.8000     246
139.8200     214
139.8400     192
139.8600     183
139.8800     221
139.9000     264
139.9200     242
139.9400     201
139.9600     198
139.9800     206
140.0000     194
140.0200     182
140.0400     210
140.0600     243
140.0800     221
140.1000     184
140.1200     184
140.1400     197
140.1600     205
140.1800     221
140.2000     287
140.2200     358
140.2400     352
140.2600     315
140.2800     275
140.3000     239
140.3200     235
140.3400     237
140.3600     212
140.3800     173
140.4000     119
140.4200      84
140.4400     174
140.4600     287
140.4800     263
140.5000     199
140.5200     200
140.5400     223
140.5600     218
140.5800     199
140.6000     170
140.6200     153
140.6400     224
140.6600     323
140.6800     382
140.7000     408
140.7200     342
140.7400     255
140.7600     243
140.7800     253
140.8000     223
140.8200     187
140.8400     200
140.8600     225
140.8800     216
140.9000     209
140.9200     274
140.9400     346
140.9600     310
140.9800     236
141.0000     192
141.0200     170
141.0400     201
141.0600     239
141.0800     207
141.1000     151
141.1200     117
141.1400     110
141.1600     201
141.1800     299
141.2000     236
141.2200     135
141.2400     170
141.2600     247
141.2800     259
141.3000     254
141.3200     291
141.3400     334
141.3600     320
141.3800     283
141.4000     243
141.4200     212
141.4400     236
141.4600     280
141.4800     316
141.5000     341
141.5200     336
141.5400     314
141.5600     274
141.5800     233
141.6000     227
141.6200     244
141.6400     307
141.6600     376
141.6800     379
141.7000     354
141.7200     324
141.7400     288
141.7600     233
141.7800     180
141.8000     167
141.8200     174
141.8400     193
141.8600     221
141.8800     269
141.9000     318
141.9200     332
141.9400     325
141.9600     288
141.9800     250
142.0000     275
142.0200     313
142.0400     288
142.0600     246
142.0800     246
142.1000     255
142.1200     232
142.1400     202
142.1600     204
142.1800     210
142.2000     176
142.2200     138
142.2400     162
142.2600     205
142.2800     228
142.3000     237
142.3200     223
142.3400     205
142.3600     217
142.3800     244
142.4000     289
142.4200     332
142.4400     327
142.4600     305
142.4800     293
142.5000     287
142.5200     292
142.5400     296
142.5600     267
142.5800     228
142.6000     206
142.6200     193
142.6400     195
142.6600     210
142.6800     261
142.7000     306
142.7200     245
142.7400     169
142.7600     233
142.7800     334
142.8000     341
142.8200     318
142.8400     330
142.8600     338
142.8800     253
142.9000     158
142.9200     198
142.9400     277
142.9600     279
142.9800     258
143.0000     272
143.0200     295
143.0400     293
143.0600     283
143.0800     283
143.1000     285
143.1200     279
143.1400     268
143.1600     255
143.1800     248
143.2000     276
143.2200     312
143.2400     313
143.2600     308
143.2800     336
143.3000     363
143.3200     314
143.3400     251
143.3600     278
143.3800     329
143.4000     323
143.4200     297
143.4400     283
143.4600     273
143.4800     265
143.5000     265
143.5200     310
143.5400     353
143.5600     304
143.5800     233
143.6000     232
143.6200     259
143.6400     281
143.6600     300
143.6800     311
143.7000     322
143.7200     348
143.7400     376
143.7600     389
143.7800     395
143.8000     399
143.8200     393
143.8400     335
143.8600     278
143.8800     325
143.9000     390
143.9200     340
143.9400     260
143.9600     263
143.9800     293
144.0000     295
144.0200     285
144.0400     273
144.0600     271
144.0800     316
144.1000     366
144.1200     351
144.1400     313
144.1600     298
144.1800     294
144.2000     297
144.2200     313
144.2400     382
144.2600     461
144.2800     482
144.3000     463
144.3200     361
144.3400     249
144.3600     260
144.3800     313
144.4000     331
144.4200     336
144.4400     343
144.4600     345
144.4800     317
144.5000     282
144.5200     272
144.5400     267
144.5600     238
144.5800     210
144.6000     229
144.6200     264
144.6400     287
144.6600     299
144.6800     281
144.7000     264
144.7200     307
144.7400     360
144.7600     340
144.7800     309
144.8000     375
144.8200     449
144.8400     378
144.8600     269
144.8800     265
144.9000     301
144.9200     330
144.9400     347
144.9600     319
144.9800     279
145.0000     266
145.0200     265
145.0400     271
145.0600     277
145.0800     278
145.1000     279
145.1200     297
145.1400     313
145.1600     289
145.1800     258
145.2000     277
145.2200     313
145.2400     339
145.2600     349
145.2800     302
145.3000     245
145.3200     250
145.3400     274
145.3600     270
145.3800     254
145.4000     243
145.4200     234
145.4400     233
145.4600     237
145.4800     251
145.5000     265
145.5200     256
145.5400     241
145.5600     239
145.5800     255
145.6000     328
145.6200     404
145.6400     385
145.6600     328
145.6800     274
145.7000     233
145.7200     244
145.7400     274
145.7600     294
145.7800     308
145.8000     313
145.8200     310
145.8400     282
145.8600     257
145.8800     294
145.9000     343
145.9200     325
145.9400     288
145.9600     286
145.9800     305
146.0000     361
146.0200     413
146.0400     373
146.0600     312
146.0800     323
146.1000     347
146.1200     292
146.1400     220
146.1600     217
146.1800     242
146.2000     277
146.2200     308
146.2400     302
146.2600     294
146.2800     346
146.3000     406
146.3200     388
146.3400     341
146.3600     309
146.3800     284
146.4000     266
146.4200     265
146.4400     339
146.4600     420
146.4800     386
146.5000     311
146.5200     264
146.5400     243
146.5600     294
146.5800     359
146.6000     350
146.6200     323
146.6400     351
146.6600     388
146.6800     357
146.7000     310
146.7200     318
146.7400     337
146.7600     301
146.7800     261
146.8000     313
146.8200     384
146.8400     375
146.8600     339
146.8800     331
146.9000     336
146.9200     346
146.9400     357
146.9600     363
146.9800     362
147.0000     338
147.0200     308
147.0400     298
147.0600     291
147.0800     259
147.1000     231
147.1200     271
147.1400     327
147.1600     321
147.1800     292
147.2000     268
147.2200     254
147.2400     279
147.2600     316
147.2800     339
147.3000     353
147.3200     346
147.3400     337
147.3600     363
147.3800     393
147.4000     376
147.4200     348
147.4400     358
147.4600     384
147.4800     410
147.5000     424
147.5200     375
147.5400     316
147.5600     334
147.5800     375
147.6000     384
147.6200     381
147.6400     380
147.6600     383
147.6800     406
147.7000     431
147.7200     429
147.7400     420
147.7600     424
147.7800     427
147.8000     394
147.8200     354
147.8400     357
147.8600     372
147.8800     359
147.9000     340
147.9200     347
147.9400     362
147.9600     361
147.9800     361
148.0000     402
148.0200     440
148.0400     375
148.0600     295
148.0800     347
148.1000     435
148.1200     444
148.1400     423
148.1600     404
148.1800     395
148.2000     434
148.2200     474
148.2400     419
148.2600     342
148.2800     338
148.3000     368
148.3200     415
148.3400     455
148.3600     423
148.3800     366
148.4000     324
148.4200     305
148.4400     371
148.4600     451
148.4800     433
148.5000     386
148.5200     392
148.5400     416
148.5600     420
148.5800     416
148.6000     414
148.6200     410
148.6400     398
148.6600     381
148.6800     364
148.7000     354
148.7200     384
148.7400     424
148.7600     432
148.7800     419
148.8000     363
148.8200     306
148.8400     332
148.8600     386
148.8800     410
148.9000     411
148.9200     354
148.9400     292
148.9600     320
148.9800     377
149.0000     399
149.0200     398
149.0400     353
149.0600     316
149.0800     399
149.1000     498
149.1200     429
149.1400     318
149.1600     333
149.1800     391
149.2000     408
149.2200     403
149.2400     373
149.2600     341
149.2800     349
149.3000     371
149.3200     386
149.3400     390
149.3600     356
149.3800     317
149.4000     331
149.4200     367
149.4400     400
149.4600     426
149.4800     427
149.5000     409
149.5200     354
149.5400     296
149.5600     295
149.5800     325
149.6000     395
149.6200     471
149.6400     500
149.6600     500
149.6800     450
149.7000     389
149.7200     372
149.7400     376
149.7600     403
149.7800     433
149.8000     433
149.8200     424
149.8400     432
149.8600     447
149.8800     470
149.9000     489
149.9200     473
149.9400     453
149.9600     480
149.9800     518
150.0000     516
150.0200     499
150.0400     487
150.0600     473
150.0800     442
150.1000     415
150.1200     442
150.1400     478
150.1600     459
150.1800     434
150.2000     492
150.2200     567
150.2400     554
150.2600     507
150.2800     470
150.3000     442
150.3200     444
150.3400     460
150.3600     486
150.3800     512
150.4000     521
150.4200     527
150.4400     552
150.4600     588
150.4800     649
150.5000     694
150.5200     617
150.5400     511
150.5600     505
150.5800     531
150.6000     516
150.6200     487
150.6400     474
150.6600     470
150.6800     475
150.7000     485
150.7200     508
150.7400     529
150.7600     512
150.7800     490
150.8000     518
150.8200     553
150.8400     523
150.8600     472
150.8800     447
150.9000     436
150.9200     437
150.9400     452
150.9600     514
150.9800     585
151.0000     612
151.0200     620
151.0400     617
151.0600     599
151.0800     534
151.1000     462
151.1200     452
151.1400     470
151.1600     508
151.1800     555
151.2000     610
151.2200     662
151.2400     684
151.2600     690
151.2800     675
151.3000     655
151.3200     655
151.3400     660
151.3600     655
151.3800     649
151.4000     661
151.4200     674
151.4400     652
151.4600     620
151.4800     610
151.5000     613
151.5200     641
151.5400     677
151.5600     705
151.5800     730
151.6000     765
151.6200     789
151.6400     745
151.6600     689
151.6800     716
151.7000     765
151.7200     757
151.7400     723
151.7600     666
151.7800     625
151.8000     711
151.8200     831
151.8400     871
151.8600     880
151.8800     894
151.9000     911
151.9200     936
151.9400     963
151.9600     987
151.9800    1002
152.0000     982
152.0200     964
152.0400    1028
152.0600    1095
152.0800    1022
152.1000     924
152.1200     988
152.1400    1081
152.1600    1004
152.1800     881
152.2000     871
152.2200     912
152.2400     980
152.2600    1047
152.2800    1062
152.3000    1072
152.3200    1159
152.3400    1253
152.3600    1229
152.3800    1167
152.4000    1160
152.4200    1182
152.4400    1244
152.4600    1302
152.4800    1258
152.5000    1200
152.5200    1269
152.5400    1371
152.5600    1388
152.5800    1365
152.6000    1317
152.6200    1276
152.6400    1322
152.6600    1401
152.6800    1475
152.7000    1542
152.7200    1589
152.7400    1631
152.7600    1693
152.7800    1737
152.8000    1653
152.8200    1545
152.8400    1582
152.8600    1675
152.8800    1763
152.9000    1843
152.9200    1896
152.9400    1924
152.9600    1882
152.9800    1826
153.0000    1837
153.0200    1858
153.0400    1794
153.0600    1713
153.0800    1720
153.1000    1774
153.1200    1887
153.1400    1991
153.1600    1940
153.1800    1869
153.2000    2013
153.2200    2198
153.2400    2156
153.2600    2057
153.2800    2125
153.3000    2243
153.3200    2284
153.3400    2304
153.3600    2369
153.3800    2431
153.4000    2381
153.4200    2297
153.4400    2260
153.4600    2251
153.4800    2285
153.5000    2331
153.5200    2347
153.5400    2368
153.5600    2476
153.5800    2577
153.6000    2475
153.6200    2313
153.6400    2261
153.6600    2281
153.6800    2442
153.7000    2626
153.7200    2640
153.7400    2585
153.7600    2522
153.7800    2480
153.8000    2558
153.8200    2673
153.8400    2731
153.8600    2747
153.8800    2665
153.9000    2581
153.9200    2687
153.9400    2819
153.9600    2701
153.9800    2521
154.0000    2531
154.0200    2595
154.0400    2549
154.0600    2488
154.0800    2574
154.1000    2702
154.1200    2750
154.1400    2765
154.1600    2778
154.1800    2781
154.2000    2739
154.2200    2672
154.2400    2570
154.2600    2467
154.2800    2427
154.3000    2429
154.3200    2506
154.3400    2592
154.3600    2570
154.3800    2520
154.4000    2553
154.4200    2583
154.4400    2432
154.4600    2250
154.4800    2279
154.5000    2383
154.5200    2434
154.5400    2456
154.5600    2436
154.5800    2403
154.6000    2385
154.6200    2370
154.6400    2340
154.6600    2304
154.6800    2265
154.7000    2244
154.7200    2318
154.7400    2385
154.7600    2227
154.7800    2040
154.8000    2159
154.8200    2357
154.8400    2335
154.8600    2249
154.8800    2283
154.9000    2351
154.9200    2346
154.9400    2322
154.9600    2351
154.9800    2385
155.0000    2334
155.0200    2256
155.0400    2208
155.0600    2168
155.0800    2110
155.1000    2050
155.1200    2023
155.1400    2005
155.1600    1967
155.1800    1920
155.2000    1863
155.2200    1811
155.2400    1796
155.2600    1785
155.2800    1724
155.3000    1654
155.3200    1644
155.3400    1654
155.3600    1644
155.3800    1635
155.4000    1669
155.4200    1710
155.4400    1693
155.4600    1659
155.4800    1658
155.5000    1669
155.5200    1672
155.5400    1656
155.5600    1565
155.5800    1467
155.6000    1491
155.6200    1534
155.6400    1435
155.6600    1311
155.6800    1344
155.7000    1427
155.7200    1448
155.7400    1442
155.7600    1424
155.7800    1402
155.8000    1375
155.8200    1356
155.8400    1379
155.8600    1403
155.8800    1352
155.9000    1273
155.9200    1207
155.9400    1156
155.9600    1152
155.9800    1155
156.0000    1103
156.0200    1061
156.0400    1182
156.0600    1332
156.0800    1299
156.1000    1206
156.1200    1176
156.1400    1173
156.1600    1177
156.1800    1173
156.2000    1117
156.2200    1043
156.2400     981
156.2600     934
156.2800     945
156.3000     976
156.3200     991
156.3400     983
156.3600     900
156.3800     817
156.4000     889
156.4200    1009
156.4400    1059
156.4600    1067
156.4800    1007
156.5000     937
156.5200     958
156.5400     996
156.5600     931
156.5800     852
156.6000     910
156.6200     998
156.6400     966
156.6600     885
156.6800     800
156.7000     728
156.7200     721
156.7400     741
156.7600     763
156.7800     785
156.8000     809
156.8200     823
156.8400     792
156.8600     748
156.8800     732
156.9000     718
156.9200     652
156.9400     594
156.9600     675
156.9800     787
157.0000     779
157.0200     732
157.0400     735
157.0600     748
157.0800     716
157.1000     664
157.1200     602
157.1400     555
157.1600     603
157.1800     669
157.2000     633
157.2200     578
157.2400     625
157.2600     695
157.2800     678
157.3000     628
157.3200     590
157.3400     556
157.3600     525
157.3800     503
157.4000     520
157.4200     550
157.4400     570
157.4600     577
157.4800     540
157.5000     496
157.5200     497
157.5400     528
157.5600     612
157.5800     698
157.6000     681
157.6200     615
157.6400     507
157.6600     405
157.6800     415
157.7000     474
157.7200     558
157.7400     631
157.7600     597
157.7800     535
157.8000     540
157.8200     565
157.8400     556
157.8600     541
157.8800     561
157.9000     590
157.9200     594
157.9400     591
157.9600     600
157.9800     605
158.0000     568
158.0200     524
158.0400     529
158.0600     551
158.0800     564
158.1000     566
158.1200     527
158.1400     474
158.1600     439
158.1800     422
158.2000     458
158.2200     510
158.2400     531
158.2600     532
158.2800     498
158.3000     454
158.3200     430
158.3400     420
158.3600     440
158.3800     460
158.4000     425
158.4200     381
158.4400     407
158.4600     450
158.4800     436
158.5000     415
158.5200     467
158.5400     537
158.5600     547
158.5800     525
158.6000     458
158.6200     388
158.6400     388
158.6600     422
158.6800     486
158.7000     554
158.7200     584
158.7400     590
158.7600     559
158.7800     522
158.8000     527
158.8200     532
158.8400     452
158.8600     359
158.8800     369
158.9000     413
158.9200     417
158.9400     416
158.9600     468
158.9800     520
159.0000     461
159.0200     373
159.0400     368
159.0600     391
159.0800     387
159.1000     368
159.1200     321
159.1400     285
159.1600     361
159.1800     468
159.2000     515
159.2200     530
159.2400     512
159.2600     479
159.2800     442
159.3000     409
159.3200     398
159.3400     397
159.3600     399
159.3800     399
159.4000     379
159.4200     360
159.4400     388
159.4600     420
159.4800     380
159.5000     336
159.5200     410
159.5400     508
159.5600     485
159.5800     416
159.6000     362
159.6200     321
159.6400     315
159.6600     330
159.6800     381
159.7000     427
159.7200     368
159.7400     286
159.7600     294
159.7800     330
159.8000     328
159.8200     318
159.8400     350
159.8600     394
159.8800     423
159.9000     437
159.9200     409
159.9400     372
159.9600     367
159.9800     375
160.0000     386
160.0200     393
160.0400     377
160.0600     355
160.0800     356
160.1000     363
160.1200     352
160.1400     337
160.1600     339
160.1800     346
160.2000     351
160.2200     355
160.2400     357
160.2600     368
160.2800     421
160.3000     470
160.3200     414
160.3400     331
160.3600     326
160.3800     351
160.4000     370
160.4200     378
160.4400     351
160.4600     314
160.4800     300
160.5000     295
160.5200     287
160.5400     286
160.5600     332
160.5800     382
160.6000     367
160.6200     326
160.6400     288
160.6600     255
160.6800     239
160.7000     241
160.7200     305
160.7400     375
160.7600     355
160.7800     300
160.8000     255
160.8200     223
160.8400     241
160.8600     283
160.8800     347
160.9000     402
160.9200     372
160.9400     316
160.9600     303
160.9800     307
161.0000     308
161.0200     319
161.0400     390
161.0600     462
161.0800     426
161.1000     351
161.1200     302
161.1400     276
161.1600     310
161.1800     361
161.2000     372
161.2200     362
161.2400     322
161.2600     279
161.2800     278
161.3000     294
161.3200     310
161.3400     331
161.3600     377
161.3800     418
161.4000     384
161.4200     326
161.4400     299
161.4600     278
161.4800     222
161.5000     170
161.5200     207
161.5400     270
161.5600     291
161.5800     296
161.6000     304
161.6200     311
161.6400     300
161.6600     283
161.6800     273
161.7000     261
161.7200     229
161.7400     198
161.7600     212
161.7800     238
161.8000     235
161.8200     239
161.8400     332
161.8600     436
161.8800     421
161.9000     360
161.9200     299
161.9400     250
161.9600     253
161.9800     271