File: XRD_Tool/XRD_Tool/bin/Debug/LDA_sample_name_56789_Psi-45_20180622-235844.txt
141.0000     257
141.0200     231
141.0400     243
141.0600     262
141.0800     236
141.1000     204
141.1200     229
141.1400     276
141.1600     321
141.1800     352
141.2000     317
141.2200     267
141.2400     280
141.2600     313
141.2800     323
141.3000     323
141.3200     326
141.3400     320
141.3600     261
141.3800     201
141.4000     243
141.4200     311
141.4400     314
141.4600     298
141.4800     325
141.5000     352
141.5200     291
141.5400     210
141.5600     202
141.5800     232
141.6000     302
141.6200     373
141.6400     371
141.6600     335
141.6800     279
141.7000     233
141.7200     275
141.7400     334
141.7600     298
141.7800     235
141.8000     227
141.8200     243
141.8400     266
141.8600     282
141.8800     253
141.9000     223
141.9200     281
141.9400     355
141.9600     329
141.9800     275
142.0000     279
142.0200     303
142.0400     302
142.0600     292
142.0800     284
142.1000     277
142.1200     278
142.1400     282
142.1600     286
142.1800     285
142.2000     254
142.2200     221
142.2400     235
142.2600     260
142.2800     252
142.3000     235
142.3200     248
142.3400     271
142.3600     287
142.3800     303
142.4000     327
142.4200     350
142.4400     345
142.4600     325
142.4800     287
142.5000     247
142.5200     242
142.5400     246
142.5600     233
142.5800     222
142.6000     253
142.6200     294
142.6400     303
142.6600     300
142.6800     297
142.7000     289
142.7200     253
142.7400     206
142.7600     166
142.7800     144
142.8000     203
142.8200     278
142.8400     263
142.8600     210
142.8800     142
142.9000      89
142.9200     141
142.9400     227
142.9600     273
142.9800     303
143.0000     330
143.0200     350
143.0400     343
143.0600     331
143.0800     351
143.1000     377
143.1200     375
143.1400     359
143.1600     336
143.1800     322
143.2000     365
143.2200     415
143.2400     386
143.2600     329
143.2800     282
143.3000     245
143.3200     233
143.3400     232
143.3600     238
143.3800     240
143.4000     214
143.4200     186
143.4400     209
143.4600     249
143.4800     266
143.5000     270
143.5200     252
143.5400     231
143.5600     235
143.5800     255
143.6000     305
143.6200     352
143.6400     322
143.6600     272
143.6800     272
143.7000     288
143.7200     283
143.7400     273
143.7600     286
143.7800     305
143.8000     306
143.8200     292
143.8400     243
143.8600     191
143.8800     202
143.9000     239
143.9200     281
143.9400     319
143.9600     322
143.9800     316
144.0000     328
144.0200     345
144.0400     346
144.0600     333
144.0800     286
144.1000     243
144.1200     282
144.1400     339
144.1600     321
144.1800     283
144.2000     295
144.2200     326
144.2400     350
144.2600     367
144.2800     357
144.3000     336
144.3200     309
144.3400     274
144.3600     217
144.3800     169
144.4000     213
144.4200     292
144.4400     368
144.4600     427
144.4800     412
144.5000     367
144.5200     312
144.5400     254
144.5600     193
144.5800     148
144.6000     191
144.6200     263
144.6400     303
144.6600     331
144.6800     358
144.7000     377
144.7200     361
144.7400     330
144.7600     294
144.7800     266
144.8000     288
144.8200     329
144.8400     370
144.8600     399
144.8800     375
144.9000     326
144.9200     267
144.9400     220
144.9600     258
144.9800     321
145.0000     342
145.0200     346
145.0400     347
145.0600     349
145.0800     361
145.1000     368
145.1200     330
145.1400     278
145.1600     248
145.1800     240
145.2000     302
145.2200     364
145.2400     289
145.2600     196
145.2800     290
145.3000     432
145.3200     446
145.3400     413
145.3600     405
145.3800     399
145.4000     353
145.4200     302
145.4400     309
145.4600     343
145.4800     395
145.5000     437
145.5200     389
145.5400     320
145.5600     325
145.5800     349
145.6000     328
145.6200     298
145.6400     321
145.6600     362
145.6800     388
145.7000     397
145.7200     346
145.7400     280
145.7600     252
145.7800     257
145.8000     342
145.8200     439
145.8400     433
145.8600     388
145.8800     360
145.9000     345
145.9200     366
145.9400     399
145.9600     414
145.9800     419
146.0000     407
146.0200     386
146.0400     350
146.0600     312
146.0800     292
146.1000     291
146.1200     344
146.1400     402
146.1600     385
146.1800     339
146.2000     305
146.2200     276
146.2400     257
146.2600     247
146.2800     267
146.3000     300
146.3200     340
146.3400     373
146.3600     361
146.3800     338
146.4000     351
146.4200     368
146.4400     325
146.4600     275
146.4800     303
146.5000     355
146.5200     364
146.5400     357
146.5600     353
146.5800     345
146.6000     309
146.6200     265
146.6400     239
146.6600     231
146.6800     273
146.7000     326
146.7200     336
146.7400     328
146.7600     323
146.7800     325
146.8000     352
146.8200     396
146.8400     470
146.8600     527
146.8800     439
146.9000     318
146.9200     319
146.9400     362
146.9600     370
146.9800     364
147.0000     363
147.0200     366
147.0400     386
147.0600     419
147.0800     487
147.1000     550
147.1200     519
147.1400     454
147.1600     403
147.1800     362
147.2000     351
147.2200     349
147.2400     335
147.2600     338
147.2800     443
147.3000     557
147.3200     512
147.3400     416
147.3600     377
147.3800     359
147.4000     333
147.4200     302
147.4400     271
147.4600     259
147.4800     345
147.5000     442
147.5200     391
147.5400     298
147.5600     290
147.5800     315
147.6000     336
147.6200     353
147.6400     355
147.6600     350
147.6800     339
147.7000     330
147.7200     346
147.7400     365
147.7600     354
147.7800     330
147.8000     306
147.8200     290
147.8400     316
147.8600     357
147.8800     394
147.9000     425
147.9200     428
147.9400     422
147.9600     428
147.9800     433
148.0000     416
148.0200     389
148.0400     359
148.0600     339
148.0800     381
148.1000     433
148.1200     418
148.1400     387
148.1600     411
148.1800     453
148.2000     475
148.2200     477
148.2400     417
148.2600     354
148.2800     391
148.3000     452
148.3200     430
148.3400     387
148.3600     407
148.3800     435
148.4000     370
148.4200     293
148.4400     346
148.4600     426
148.4800     384
148.5000     311
148.5200     325
148.5400     366
148.5600     370
148.5800     364
148.6000     375
148.6200     399
148.6400     456
148.6600     499
148.6800     409
148.7000     292
148.7200     312
148.7400     384
148.7600     451
148.7800     498
148.8000     463
148.8200     393
148.8400     312
148.8600     243
148.8800     260
148.9000     314
148.9200     373
148.9400     424
148.9600     420
148.9800     401
149.0000     414
149.0200     433
149.0400     417
149.0600     393
149.0800     402
149.1000     412
149.1200     364
149.1400     310
149.1600     344
149.1800     408
149.2000     440
149.2200     453
149.2400     430
149.2600     394
149.2800     373
149.3000     358
149.3200     351
149.3400     350
149.3600     359
149.3800     382
149.4000     448
149.4200     507
149.4400     440
149.4600     344
149.4800     358
149.5000     410
149.5200     432
149.5400     437
149.5600     422
149.5800     401
149.6000     398
149.6200     405
149.6400     422
149.6600     439
149.6800     428
149.7000     407
149.7200     394
149.7400     391
149.7600     425
149.7800     472
149.8000     517
149.8200     563
149.8400     616
149.8600     651
149.8800     583
149.9000     480
149.9200     413
149.9400     374
149.9600     400
149.9800     445
150.0000     455
150.0200     451
150.0400     442
150.0600     439
150.0800     468
150.1000     507
150.1200     532
150.1400     537
150.1600     466
150.1800     393
150.2000     468
150.2200     569
150.2400     503
150.2600     396
150.2800     414
150.3000     465
150.3200     428
150.3400     372
150.3600     394
150.3800     454
150.4000     541
150.4200     627
150.4400     658
150.4600     658
150.4800     621
150.5000     569
150.5200     514
150.5400     466
150.5600     456
150.5800     467
150.6000     500
150.6200     529
150.6400     496
150.6600     450
150.6800     462
150.7000     497
150.7200     526
150.7400     544
150.7600     522
150.7800     493
150.8000     512
150.8200     541
150.8400     527
150.8600     501
150.8800     507
150.9000     524
150.9200     537
150.9400     549
150.9600     556
150.9800     560
151.0000     551
151.0200     539
151.0400     540
151.0600     540
151.0800     510
151.1000     477
151.1200     487
151.1400     519
151.1600     570
151.1800     618
151.2000     621
151.2200     615
151.2400     659
151.2600     709
151.2800     691
151.3000     649
151.3200     628
151.3400     617
151.3600     608
151.3800     608
151.4000     651
151.4200     704
151.4400     719
151.4600     714
151.4800     687
151.5000     652
151.5200     617
151.5400     589
151.5600     588
151.5800     607
151.6000     672
151.6200     738
151.6400     709
151.6600     666
151.6800     735
151.7000     819
151.7200     753
151.7400     645
151.7600     630
151.7800     655
151.8000     697
151.8200     747
151.8400     809
151.8600     863
151.8800     858
151.9000     826
151.9200     773
151.9400     713
151.9600     668
151.9800     643
152.0000     691
152.0200     759
152.0400     777
152.0600     773
152.0800     757
152.1000     749
152.1200     800
152.1400     855
152.1600     816
152.1800     753
152.2000     755
152.2200     783
152.2400     810
152.2600     826
152.2800     792
152.3000     755
152.3200     804
152.3400     873
152.3600     866
152.3800     836
152.4000     847
152.4200     866
152.4400     840
152.4600     811
152.4800     857
152.5000     921
152.5200     924
152.5400     901
152.5600     874
152.5800     851
152.6000     850
152.6200     869
152.6400     946
152.6600    1034
152.6800    1062
152.7000    1071
152.7200    1100
152.7400    1125
152.7600    1085
152.7800    1024
152.8000     986
152.8200     973
152.8400    1034
152.8600    1123
152.8800    1212
152.9000    1278
152.9200    1232
152.9400    1147
152.9600    1087
152.9800    1042
153.0000    1020
153.0200    1025
153.0400    1112
153.0600    1206
153.0800    1173
153.1000    1113
153.1200    1168
153.1400    1262
153.1600    1318
153.1800    1350
153.2000    1345
153.2200    1330
153.2400    1335
153.2600    1357
153.2800    1421
153.3000    1491
153.3200    1513
153.3400    1511
153.3600    1492
153.3800    1459
153.4000    1393
153.4200    1350
153.4400    1494
153.4600    1668
153.4800    1625
153.5000    1513
153.5200    1488
153.5400    1501
153.5600    1534
153.5800    1581
153.6000    1665
153.6200    1732
153.6400    1647
153.6600    1540
153.6800    1630
153.7000    1773
153.7200    1791
153.7400    1757
153.7600    1715
153.7800    1689
153.8000    1763
153.8200    1872
153.8400    1957
153.8600    2020
153.8800    2013
153.9000    1977
153.9200    1929
153.9400    1895
153.9600    1951
153.9800    2039
154.0000    2102
154.0200    2152
154.0400    2182
154.0600    2188
154.0800    2116
154.1000    2032
154.1200    2050
154.1400    2101
154.1600    2118
154.1800    2125
154.2000    2147
154.2200    2172
154.2400    2181
154.2600    2181
154.2800    2172
154.3000    2173
154.3200    2239
154.3400    2306
154.3600    2247
154.3800    2171
154.4000    2265
154.4200    2413
154.4400    2492
154.4600    2516
154.4800    2400
154.5000    2271
154.5200    2356
154.5400    2497
154.5600    2493
154.5800    2442
154.6000    2449
154.6200    2477
154.6400    2492
154.6600    2492
154.6800    2447
154.7000    2388
154.7200    2354
154.7400    2335
154.7600    2344
154.7800    2364
154.8000    2383
154.8200    2410
154.8400    2483
154.8600    2542
154.8800    2435
154.9000    2302
154.9200    2377
154.9400    2495
154.9600    2415
154.9800    2287
155.0000    2321
155.0200    2395
155.0400    2350
155.0600    2280
155.0800    2319
155.1000    2390
155.1200    2406
155.1400    2394
155.1600    2352
155.1800    2299
155.2000    2251
155.2200    2218
155.2400    2255
155.2600    2305
155.2800    2287
155.3000    2249
155.3200    2256
155.3400    2279
155.3600    2299
155.3800    2306
155.4000    2259
155.4200    2194
155.4400    2143
155.4600    2099
155.4800    2070
155.5000    2066
155.5200    2164
155.5400    2283
155.5600    2308
155.5800    2287
155.6000    2220
155.6200    2145
155.6400    2125
155.6600    2122
155.6800    2099
155.7000    2077
155.7200    2108
155.7400    2150
155.7600    2137
155.7800    2099
155.8000    2038
155.8200    1969
155.8400    1910
155.8600    1884
155.8800    2006
155.9000    2149
155.9200    2095
155.9400    1974
155.9600    1905
155.9800    1852
156.0000    1777
156.0200    1704
156.0400    1686
156.0600    1692
156.0800    1707
156.1000    1734
156.1200    1811
156.1400    1885
156.1600    1847
156.1800    1769
156.2000    1709
156.2200    1658
156.2400    1612
156.2600    1576
156.2800    1575
156.3000    1588
156.3200    1593
156.3400    1595
156.3600    1597
156.3800    1598
156.4000    1599
156.4200    1587
156.4400    1513
156.4600    1435
156.4800    1455
156.5000    1502
156.5200    1483
156.5400    1447
156.5600    1462
156.5800    1479
156.6000    1400
156.6200    1290
156.6400    1221
156.6600    1188
156.6800    1245
156.7000    1323
156.7200    1321
156.7400    1293
156.7600    1292
156.7800    1299
156.8000    1292
156.8200    1298
156.8400    1393
156.8600    1473
156.8800    1304
156.9000    1080
156.9200    1071
156.9400    1121
156.9600    1033
156.9800     929
157.0000    1028
157.0200    1173
157.0400    1143
157.0600    1062
157.0800    1076
157.1000    1121
157.1200    1131
157.1400    1131
157.1600    1146
157.1800    1150
157.2000    1062
157.2200     957
157.2400     942
157.2600     961
157.2800     965
157.3000     954
157.3200     895
157.3400     834
157.3600     858
157.3800     907
157.4000     916
157.4200     906
157.4400     886
157.4600     865
157.4800     862
157.5000     867
157.5200     872
157.5400     874
157.5600     853
157.5800     841
157.6000     920
157.6200    1011
157.6400     976
157.6600     891
157.6800     816
157.7000     762
157.7200     801
157.7400     871
157.7600     906
157.7800     916
157.8000     868
157.8200     810
157.8400     825
157.8600     856
157.8800     821
157.9000     776
157.9200     817
157.9400     881
157.9600     884
157.9800     865
158.0000     864
158.0200     862
158.0400     820
158.0600     757
158.0800     667
158.1000     592
158.1200     639
158.1400     726
158.1600     768
158.1800     778
158.2000     721
158.2200     651
158.2400     651
158.2600     676
158.2800     683
158.3000     681
158.3200     667
158.3400     655
158.3600     671
158.3800     691
158.4000     666
158.4200     628
158.4400     607
158.4600     608
158.4800     689
158.5000     773
158.5200     715
158.5400     618
158.5600     604
158.5800     627
158.6000     664
158.6200     695
158.6400     672
158.6600     643
158.6800     688
158.7000     738
158.7200     668
158.7400     563
158.7600     524
158.7800     519
158.8000     546
158.8200     577
158.8400     561
158.8600     533
158.8800     535
158.9000     545
158.9200     535
158.9400     528
158.9600     574
158.9800     635
159.0000     661
159.0200     668
159.0400     650
159.0600     621
159.0800     586
159.1000     554
159.1200     555
159.1400     566
159.1600     562
159.1800     539
159.2000     453
159.2200     370
159.2400     434
159.2600     545
159.2800     606
159.3000     629
159.3200     569
159.3400     489
159.3600     479
159.3800     491
159.4000     474
159.4200     448
159.4400     432
159.4600     429
159.4800     470
159.5000     522
159.5200     549
159.5400     549
159.5600     472
159.5800     382
159.6000     382
159.6200     414
159.6400     421
159.6600     422
159.6800     436
159.7000     447
159.7200     408
159.7400     361
159.7600     369
159.7800     399
159.8000     429
159.8200     464
159.8400     522
159.8600     572
159.8800     531
159.9000     459
159.9200     418
159.9400     396
159.9600     403
159.9800     418
160.0000     421
160.0200     420
160.0400     426
160.0600     428
160.0800     402
160.1000     369
160.1200     361
160.1400     375
160.1600     454
160.1800     529
160.2000     461
160.2200     359
160.2400     377
160.2600     431
160.2800     426
160.3000     405
160.3200     418
160.3400     435
160.3600     410
160.3800     364
160.4000     296
160.4200     246
160.4400     321
160.4600     424
160.4800     414
160.5000     369
160.5200     379
160.5400     411
160.5600     446
160.5800     473
160.6000     450
160.6200     421
160.6400     457
160.6600     512
160.6800     534
160.7000     535
160.7200     504
160.7400     461
160.7600     418
160.7800     387
160.8000     411
160.8200     453
160.8400     472
160.8600     479
160.8800     476
160.9000     462
160.9200     416
160.9400     373
160.9600     405
160.9800     458
161.0000     468
161.0200     467
161.0400     503
161.0600     540
161.0800     517
161.1000     477
161.1200     475
161.1400     491
161.1600     517
161.1800     532
161.2000     470
161.2200     398
161.2400     423
161.2600     469
161.2800     425
161.3000     360
161.3200     372
161.3400     398
161.3600     344
161.3800     268
161.4000     247
161.4200     262
161.4400     355
161.4600     456
161.4800     441
161.5000     388
161.5200     381
161.5400     395
161.5600     414
161.5800     422
161.6000     362
161.6200     290
161.6400     301
161.6600     340
161.6800     349
161.7000     352
161.7200     380
161.7400     404
161.7600     360
161.7800     302
161.8000     312
161.8200     348
161.8400     376
161.8600     397
161.8800     403
161.9000     402
161.9200     396
161.9400     400
161.9600     462
161.9800     523
162.0000     457
162.0200     362
162.0400     367
162.0600     406
162.0800     412
162.1000     407
162.1200     419
162.1400     432
162.1600     425
162.1800     410
162.2000     398
162.2200     395
162.2400     425
162.2600     458
162.2800     431
162.3000     383
162.3200     342
162.3400     310
162.3600     313
162.3800     339
162.4000     413
162.4200     484
162.4400     442
162.4600     361
162.4800     318
162.5000     292
162.5200     271
162.5400     272
162.5600     365
162.5800     471
162.6000     458
162.6200     413
162.6400     440
162.6600     482
162.6800     452
162.7000     409
162.7200     443
162.7400     497
162.7600     501
162.7800     480
162.8000     432
162.8200     387
162.8400     404
162.8600     443
162.8800     467
162.9000     466
162.9200     370
162.9400     255
162.9600     235
162.9800     258
163.0000     309
163.0200     360
163.0400     358
163.0600     343
163.0800     376
163.1000     407
163.1200     330
163.1400     226
163.1600     202
163.1800     213
163.2000     241
163.2200     272
163.2400     289
163.2600     303
163.2800     326
163.3000     348
163.3200     350
163.3400     340
163.3600     310
163.3800     285
163.4000     328
163.4200     385
163.4400     374
163.4600     346
163.4800     369
163.5000     398
163.5200     349
163.5400     288
163.5600     320
163.5800     379
163.6000     385
163.6200     368
163.6400     346
163.6600     333
163.6800     375
163.7000     419
163.7200     366
163.7400     292
163.7600     305
163.7800     342
163.8000     326
163.8200     288
163.8400     251
163.8600     225
163.8800     244
163.9000     281
163.9200     313
163.9400     333
163.9600     300
163.9800     254
164.0000     253
164.0200     276
164.0400     336
164.0600     396
164.0800     386
164.1000     350
164.1200     329
164.1400     322
164.1600     362
164.1800     408
164.2000     399
164.2200     368
164.2400     345
164.2600     332
164.2800     351
164.3000     374
164.3200     350
164.3400     314
164.3600     306
164.3800     311
164.4000     321
164.4200     336
164.4400     361
164.4600     380
164.4800     341
164.5000     291
164.5200     302
164.5400     336
164.5600     355
164.5800     359
164.6000     311
164.6200     261
164.6400     300
164.6600     360
164.6800     350
164.7000     319
164.7200     323
164.7400     341
164.7600     360
164.7800     378
164.8000     381
164.8200     371
164.8400     321
164.8600     270
164.8800     291
164.9000     335
164.9200     349
164.9400     336
164.9600     249
164.9800     163