File: XRD_Tool/XRD_Tool/bin/Debug/LDA_sample_name_56789_Psi-0_20180603-104706.txt
150.0000      63
150.0400      63
150.0800      63
150.1200      63
150.1600     260
150.2000      63
150.2400     280
150.2800     265
150.3200     260
150.3600     259
150.4000     271
150.4400     257
150.4800      63
150.5200      63
150.5600      63
150.6000     271
150.6400      63
150.6800     264
150.7200     262
150.7600      63
150.8000     270
150.8400      63
150.8800     276
150.9200      63
150.9600     257
151.0000     278
151.0400      63
151.0800      63
151.1200      63
151.1600      63
151.2000     283
151.2400      63
151.2800      63
151.3200      63
151.3600     270
151.4000     258
151.4400      63
151.4800     269
151.5200      63
151.5600     261
151.6000     261
151.6400     260
151.6800      63
151.7200      63
151.7600     278
151.8000      63
151.8400     263
151.8800     258
151.9200     283
151.9600      63
152.0000     268
152.0400     272
152.0800      63
152.1200      63
152.1600     276
152.2000     278
152.2400      63
152.2800      63
152.3200      63
152.3600      63
152.4000      63
152.4400     257
152.4800      63
152.5200     271
152.5600      63
152.6000     271
152.6400      63
152.6800     268
152.7200      63
152.7600      63
152.8000      63
152.8400     259
152.8800      63
152.9200     261
152.9600     263
153.0000      63
153.0400     258
153.0800      63
153.1200     265
153.1600      63
153.2000      63
153.2400     259
153.2800     262
153.3200      63
153.3600     279
153.4000     273
153.4400     270
153.4800      63
153.5200      63
153.5600      63
153.6000     261
153.6400      63
153.6800      63
153.7200     260
153.7600      63
153.8000     260
153.8400      63
153.8800     264
153.9200      63
153.9600      63
154.0000      63
154.0400     257
154.0800     258
154.1200     268
154.1600      63
154.2000      63
154.2400      63
154.2800     266
154.3200      63
154.3600      63
154.4000      63
154.4400      63
154.4800     294
154.5200     282
154.5600      63
154.6000     264
154.6400     284
154.6800     288
154.7200      63
154.7600      63
154.8000      63
154.8400     260
154.8800      63
154.9200     259
154.9600     274
155.0000      63
155.0400     261
155.0800     260
155.1200     265
155.1600      63
155.2000      63
155.2400      63
155.2800     290
155.3200     289
155.3600     261
155.4000     256
155.4400      63
155.4800      63
155.5200     268
155.5600     257
155.6000     265
155.6400     290
155.6800     274
155.7200     289
155.7600     277
155.8000     256
155.8400     295
155.8800     279
155.9200     288
155.9600      63
156.0000      63
156.0400     279
156.0800     278
156.1200     272
156.1600      63
156.2000     256
156.2400      63
156.2800     266
156.3200     260
156.3600     257
156.4000      63
156.4400     273
156.4800     272
156.5200     272
156.5600     277
156.6000      63
156.6400     279
156.6800     280
156.7200     295
156.7600      63
156.8000      63
156.8400     263
156.8800     272
156.9200     284
156.9600     271
157.0000      63
157.0400     283
157.0800     290
157.1200     258
157.1600     305
157.2000     266
157.2400     271
157.2800     301
157.3200     281
157.3600     267
157.4000     271
157.4400     268
157.4800      63
157.5200     281
157.5600     261
157.6000     300
157.6400      63
157.6800     269
157.7200     302
157.7600     291
157.8000      63
157.8400      63
157.8800     274
157.9200     293
157.9600     298
158.0000     263
158.0400     277
158.0800     276
158.1200     274
158.1600     277
158.2000      63
158.2400     262
158.2800     296
158.3200     266
158.3600     277
158.4000     282
158.4400     288
158.4800      63
158.5200     256
158.5600     268
158.6000     265
158.6400      63
158.6800     282
158.7200     277
158.7600     258
158.8000     278
158.8400      63
158.8800     298
158.9200     281
158.9600      63
159.0000     286
159.0400     267
159.0800     283
159.1200     271
159.1600     274
159.2000     285
159.2400     271
159.2800     281
159.3200     263
159.3600     279
159.4000     270
159.4400      63
159.4800     268
159.5200     277
159.5600     319
159.6000      63
159.6400     272
159.6800     273
159.7200     278
159.7600     290
159.8000     272
159.8400     259
159.8800     269
159.9200     320
159.9600     283
160.0000     281
160.0400      63
160.0800     277
160.1200     265
160.1600     298
160.2000     273
160.2400     301
160.2800     288
160.3200     292
160.3600     268
160.4000     296
160.4400     299
160.4800     295
160.5200     297
160.5600     298
160.6000     270
160.6400     288
160.6800     266
160.7200     280
160.7600     277
160.8000     277
160.8400     278
160.8800     269
160.9200     269
160.9600     277
161.0000     298
161.0400     287
161.0800     277
161.1200     268
161.1600     291
161.2000     262
161.2400     300
161.2800     314
161.3200     302
161.3600     272
161.4000     277
161.4400     278
161.4800     293
161.5200     297
161.5600     273
161.6000     283
161.6400     306
161.6800     265
161.7200     268
161.7600     312
161.8000     278
161.8400     289
161.8800     288
161.9200      63
161.9600     293
162.0000     293
162.0400     315
162.0800     300
162.1200     299
162.1600     319
162.2000     305
162.2400     258
162.2800     270
162.3200     294
162.3600     319
162.4000     316
162.4400     285
162.4800     304
162.5200     300
162.5600     288
162.6000     298
162.6400     285
162.6800     322
162.7200     323
162.7600     307
162.8000     319
162.8400     309
162.8800     295
162.9200     291
162.9600     308
163.0000     317
163.0400     299
163.0800     315
163.1200     317
163.1600     299
163.2000     305
163.2400     298
163.2800     327
163.3200     327
163.3600     312
163.4000     323
163.4400     317
163.4800     308
163.5200     316
163.5600     329
163.6000     328
163.6400     329
163.6800     344
163.7200     324
163.7600     333
163.8000     311
163.8400     300
163.8800     317
163.9200     337
163.9600     322
164.0000     355
164.0400     317
164.0800     332
164.1200     349
164.1600     338
164.2000     348
164.2400     334
164.2800     369
164.3200     322
164.3600     325
164.4000     316
164.4400     319
164.4800     378
164.5200     368
164.5600     330
164.6000     319
164.6400     339
164.6800     358
164.7200     337
164.7600     370
164.8000     319
164.8400     319
164.8800     319
164.9200     352
164.9600     319
165.0000     340
165.0400     319
165.0800     319
165.1200     319
165.1600     319
165.2000     319
165.2400     319
165.2800     319
165.3200     319
165.3600     319
165.4000     319
165.4400     319
165.4800     319
165.5200     319
165.5600     546
165.6000     319
165.6400     319
165.6800     521
165.7200     521
165.7600     319
165.8000     540
165.8400     539
165.8800     319
165.9200     516
165.9600     568
166.0000     319
166.0400     557
166.0800     600
166.1200     546
166.1600     594
166.2000     635
166.2400     593
166.2800     603
166.3200     575
166.3600     595
166.4000     575
166.4400     634
166.4800     610
166.5200     575
166.5600     575
166.6000     575
166.6400     575
166.6800     575
166.7200     575
166.7600     575
166.8000     575
166.8400     575
166.8800     575
166.9200     575
166.9600     575
167.0000     575
167.0400     575
167.0800     575
167.1200     575
167.1600     575
167.2000     575
167.2400     773
167.2800     575
167.3200     793
167.3600     776
167.4000     797
167.4400     771
167.4800     575
167.5200     775
167.5600     575
167.6000     575
167.6400     788
167.6800     781
167.7200     575
167.7600     575
167.8000     789
167.8400     575
167.8800     788
167.9200     575
167.9600     575
168.0000     575
168.0400     575
168.0800     575
168.1200     575
168.1600     575
168.2000     575
168.2400     575
168.2800     575
168.3200     575
168.3600     627
168.4000     575
168.4400     625
168.4800     608
168.5200     619
168.5600     575
168.6000     634
168.6400     598
168.6800     609
168.7200     571
168.7600     598
168.8000     565
168.8400     554
168.8800     523
168.9200     521
168.9600     554
169.0000     515
169.0400     319
169.0800     536
169.1200     319
169.1600     319
169.2000     319
169.2400     319
169.2800     319
169.3200     319
169.3600     319
169.4000     319
169.4400     319
169.4800     319
169.5200     319
169.5600     319
169.6000     319
169.6400     319
169.6800     319
169.7200     319
169.7600     319
169.8000     319
169.8400     319
169.8800     319
169.9200     319
169.9600     319
170.0000     319
170.0400     319
170.0800     380
170.1200     319
170.1600     319
170.2000     383
170.2400     319
170.2800     376
170.3200     373
170.3600     362
170.4000     364
170.4400     360
170.4800     354
170.5200     372
170.5600     375
170.6000     383
170.6400     319
170.6800     369
170.7200     373
170.7600     362
170.8000     350
170.8400     354
170.8800     353
170.9200     382
170.9600     316
171.0000     364
171.0400     357
171.0800     320
171.1200     363
171.1600     364
171.2000     326
171.2400     347
171.2800     342
171.3200     364
171.3600     326
171.4000     354
171.4400     316
171.4800     301
171.5200     315
171.5600     341
171.6000     287
171.6400     300
171.6800     363
171.7200     299
171.7600     348
171.8000     296
171.8400     337
171.8800     340
171.9200     330
171.9600     296
172.0000     288
172.0400     341
172.0800     319
172.1200     292
172.1600     324
172.2000     283
172.2400     308
172.2800     294
172.3200     304
172.3600     293
172.4000     298
172.4400     280
172.4800     272
172.5200     278
172.5600     321
172.6000     314
172.6400     295
172.6800     285
172.7200     300
172.7600     263
172.8000     307
172.8400     304
172.8800     296
172.9200     301
172.9600     313
173.0000     279
173.0400     321
173.0800     297
173.1200     317
173.1600     273
173.2000     281
173.2400     278
173.2800     303
173.3200     265
173.3600     268
173.4000     287
173.4400     272
173.4800     286
173.5200     284
173.5600     292
173.6000     268
173.6400     277
173.6800      63
173.7200     282
173.7600     269
173.8000     273
173.8400     290
173.8800     293
173.9200      63
173.9600     296
174.0000     271
174.0400     274
174.0800     282
174.1200      63
174.1600     267
174.2000     272
174.2400     308
174.2800     303
174.3200     290
174.3600     287
174.4000     286
174.4400     258
174.4800     286
174.5200      63
174.5600     270
174.6000     297
174.6400     280
174.6800     264
174.7200     258
174.7600     299
174.8000     280
174.8400      63
174.8800     304
174.9200     286
174.9600     305
175.0000     256
175.0400     298
175.0800      63
175.1200     289
175.1600      63
175.2000     272
175.2400     276
175.2800      63
175.3200     272
175.3600     303
175.4000     293
175.4400     257
175.4800      63
175.5200     286
175.5600      63