File: XRD_Tool/XRD_Tool/bin/Debug/LDA_sample_name_56789_Psi-30_20180623-000613.txt
138.0000     198
138.0200     233
138.0400     215
138.0600     180
138.0800     175
138.1000     184
138.1200     210
138.1400     230
138.1600     190
138.1800     137
138.2000     139
138.2200     164
138.2400     195
138.2600     222
138.2800     211
138.3000     192
138.3200     211
138.3400     232
138.3600     188
138.3800     138
138.4000     185
138.4200     251
138.4400     220
138.4600     159
138.4800     138
138.5000     131
138.5200     107
138.5400      89
138.5600     131
138.5800     192
138.6000     227
138.6200     247
138.6400     248
138.6600     236
138.6800     191
138.7000     140
138.7200     124
138.7400     127
138.7600     155
138.7800     180
138.8000     138
138.8200      84
138.8400      97
138.8600     133
138.8800     154
138.9000     169
138.9200     192
138.9400     218
138.9600     243
138.9800     264
139.0000     273
139.0200     276
139.0400     276
139.0600     276
139.0800     289
139.1000     298
139.1200     262
139.1400     219
139.1600     231
139.1800     263
139.2000     282
139.2200     295
139.2400     301
139.2600     303
139.2800     297
139.3000     278
139.3200     216
139.3400     153
139.3600     178
139.3800     233
139.4000     263
139.4200     276
139.4400     252
139.4600     221
139.4800     224
139.5000     233
139.5200     207
139.5400     181
139.5600     225
139.5800     285
139.6000     288
139.6200     263
139.6400     211
139.6600     164
139.6800     189
139.7000     243
139.7200     297
139.7400     336
139.7600     300
139.7800     238
139.8000     198
139.8200     167
139.8400     142
139.8600     130
139.8800     163
139.9000     207
139.9200     211
139.9400     196
139.9600     168
139.9800     145
140.0000     175
140.0200     218
140.0400     214
140.0600     197
140.0800     204
140.1000     215
140.1200     206
140.1400     195
140.1600     222
140.1800     257
140.2000     257
140.2200     247
140.2400     252
140.2600     259
140.2800     239
140.3000     215
140.3200     221
140.3400     236
140.3600     236
140.3800     229
140.4000     217
140.4200     212
140.4400     247
140.4600     287
140.4800     265
140.5000     223
140.5200     196
140.5400     184
140.5600     214
140.5800     248
140.6000     220
140.6200     179
140.6400     193
140.6600     218
140.6800     185
140.7000     144
140.7200     181
140.7400     246
140.7600     296
140.7800     340
140.8000     384
140.8200     411
140.8400     353
140.8600     268
140.8800     220
140.9000     190
140.9200     180
140.9400     186
140.9600     230
140.9800     275
141.0000     242
141.0200     185
141.0400     164
141.0600     163
141.0800     187
141.1000     219
141.1200     241
141.1400     256
141.1600     256
141.1800     256
141.2000     286
141.2200     318
141.2400     297
141.2600     260
141.2800     250
141.3000     255
141.3200     286
141.3400     316
141.3600     283
141.3800     233
141.4000     223
141.4200     232
141.4400     258
141.4600     283
141.4800     276
141.5000     257
141.5200     241
141.5400     229
141.5600     222
141.5800     221
141.6000     235
141.6200     251
141.6400     249
141.6600     250
141.6800     304
141.7000     360
141.7200     318
141.7400     245
141.7600     217
141.7800     213
141.8000     242
141.8200     271
141.8400     234
141.8600     183
141.8800     198
141.9000     231
141.9200     216
141.9400     193
141.9600     227
141.9800     276
142.0000     295
142.0200     291
142.0400     240
142.0600     187
142.0800     216
142.1000     274
142.1200     314
142.1400     341
142.1600     343
142.1800     329
142.2000     288
142.2200     240
142.2400     210
142.2600     192
142.2800     194
142.3000     204
142.3200     213
142.3400     229
142.3600     285
142.3800     339
142.4000     308
142.4200     258
142.4400     290
142.4600     341
142.4800     332
142.5000     300
142.5200     276
142.5400     254
142.5600     220
142.5800     192
142.6000     211
142.6200     247
142.6400     271
142.6600     292
142.6800     316
142.7000     338
142.7200     340
142.7400     336
142.7600     342
142.7800     347
142.8000     326
142.8200     298
142.8400     291
142.8600     298
142.8800     330
142.9000     352
142.9200     274
142.9400     173
142.9600     157
142.9800     183
143.0000     246
143.0200     316
143.0400     344
143.0600     353
143.0800     347
143.1000     335
143.1200     320
143.1400     306
143.1600     302
143.1800     299
143.2000     281
143.2200     260
143.2400     259
143.2600     266
143.2800     281
143.3000     303
143.3200     340
143.3400     374
143.3600     355
143.3800     318
143.4000     299
143.4200     291
143.4400     301
143.4600     311
143.4800     276
143.5000     241
143.5200     291
143.5400     365
143.5600     391
143.5800     388
143.6000     343
143.6200     295
143.6400     317
143.6600     358
143.6800     351
143.7000     322
143.7200     280
143.7400     242
143.7600     255
143.7800     284
143.8000     288
143.8200     276
143.8400     229
143.8600     180
143.8800     188
143.9000     214
143.9200     222
143.9400     227
143.9600     262
143.9800     299
144.0000     291
144.0200     268
144.0400     262
144.0600     267
144.0800     300
144.1000     343
144.1200     381
144.1400     408
144.1600     387
144.1800     355
144.2000     364
144.2200     384
144.2400     374
144.2600     354
144.2800     339
144.3000     331
144.3200     341
144.3400     350
144.3600     309
144.3800     263
144.4000     289
144.4200     340
144.4400     378
144.4600     396
144.4800     345
144.5000     275
144.5200     245
144.5400     239
144.5600     270
144.5800     312
144.6000     332
144.6200     342
144.6400     342
144.6600     340
144.6800     350
144.7000     360
144.7200     348
144.7400     332
144.7600     333
144.7800     338
144.8000     329
144.8200     316
144.8400     308
144.8600     304
144.8800     309
144.9000     320
144.9200     347
144.9400     375
144.9600     373
144.9800     361
145.0000     354
145.0200     341
145.0400     281
145.0600     223
145.0800     264
145.1000     333
145.1200     347
145.1400     336
145.1600     315
145.1800     299
145.2000     331
145.2200     374
145.2400     374
145.2600     360
145.2800     364
145.3000     371
145.3200     353
145.3400     327
145.3600     309
145.3800     301
145.4000     323
145.4200     350
145.4400     339
145.4600     322
145.4800     348
145.5000     382
145.5200     368
145.5400     331
145.5600     281
145.5800     242
145.6000     289
145.6200     359
145.6400     368
145.6600     352
145.6800     341
145.7000     326
145.7200     286
145.7400     249
145.7600     277
145.7800     323
145.8000     329
145.8200     326
145.8400     361
145.8600     403
145.8800     400
145.9000     381
145.9200     365
145.9400     350
145.9600     327
145.9800     308
146.0000     322
146.0200     348
146.0400     366
146.0600     378
146.0800     382
146.1000     374
146.1200     331
146.1400     290
146.1600     332
146.1800     401
146.2000     433
146.2200     433
146.2400     343
146.2600     247
146.2800     300
146.3000     394
146.3200     403
146.3400     389
146.3600     435
146.3800     493
146.4000     489
146.4200     459
146.4400     417
146.4600     374
146.4800     346
146.5000     335
146.5200     374
146.5400     418
146.5600     380
146.5800     315
146.6000     270
146.6200     246
146.6400     280
146.6600     332
146.6800     351
146.7000     355
146.7200     352
146.7400     351
146.7600     370
146.7800     392
146.8000     386
146.8200     367
146.8400     346
146.8600     326
146.8800     316
146.9000     307
146.9200     280
146.9400     254
146.9600     268
146.9800     293
147.0000     293
147.0200     288
147.0400     306
147.0600     332
147.0800     348
147.1000     359
147.1200     363
147.1400     361
147.1600     336
147.1800     301
147.2000     263
147.2200     240
147.2400     302
147.2600     389
147.2800     434
147.3000     454
147.3200     431
147.3400     388
147.3600     331
147.3800     294
147.4000     377
147.4200     480
147.4400     438
147.4600     359
147.4800     382
147.5000     430
147.5200     398
147.5400     350
147.5600     382
147.5800     427
147.6000     380
147.6200     318
147.6400     368
147.6600     448
147.6800     460
147.7000     435
147.7200     370
147.7400     300
147.7600     290
147.7800     304
147.8000     321
147.8200     347
147.8400     413
147.8600     479
147.8800     462
147.9000     414
147.9200     378
147.9400     359
147.9600     408
147.9800     473
148.0000     485
148.0200     471
148.0400     435
148.0600     401
148.0800     415
148.1000     446
148.1200     459
148.1400     466
148.1600     481
148.1800     494
148.2000     479
148.2200     457
148.2400     455
148.2600     459
148.2800     455
148.3000     450
148.3200     465
148.3400     480
148.3600     458
148.3800     424
148.4000     398
148.4200     376
148.4400     351
148.4600     328
148.4800     323
148.5000     328
148.5200     348
148.5400     371
148.5600     376
148.5800     378
148.6000     402
148.6200     436
148.6400     481
148.6600     516
148.6800     475
148.7000     414
148.7200     411
148.7400     428
148.7600     427
148.7800     423
148.8000     444
148.8200     478
148.8400     530
148.8600     574
148.8800     536
148.9000     464
148.9200     379
148.9400     307
148.9600     328
148.9800     380
149.0000     397
149.0200     407
149.0400     444
149.0600     476
149.0800     429
149.1000     368
149.1200     387
149.1400     429
149.1600     423
149.1800     402
149.2000     404
149.2200     421
149.2400     461
149.2600     506
149.2800     521
149.3000     518
149.3200     480
149.3400     432
149.3600     402
149.3800     387
149.4000     402
149.4200     423
149.4400     409
149.4600     389
149.4800     411
149.5000     444
149.5200     454
149.5400     456
149.5600     468
149.5800     486
149.6000     515
149.6200     542
149.6400     529
149.6600     503
149.6800     487
149.7000     477
149.7200     474
149.7400     470
149.7600     449
149.7800     429
149.8000     447
149.8200     470
149.8400     435
149.8600     396
149.8800     452
149.9000     530
149.9200     531
149.9400     498
149.9600     450
149.9800     409
150.0000     428
150.0200     465
150.0400     469
150.0600     455
150.0800     424
150.1000     396
150.1200     417
150.1400     453
150.1600     474
150.1800     487
150.2000     498
150.2200     506
150.2400     503
150.2600     496
150.2800     497
150.3000     498
150.3200     481
150.3400     461
150.3600     462
150.3800     473
150.4000     489
150.4200     506
150.4400     517
150.4600     521
150.4800     510
150.5000     495
150.5200     493
150.5400     491
150.5600     459
150.5800     429
150.6000     471
150.6200     527
150.6400     511
150.6600     474
150.6800     470
150.7000     487
150.7200     538
150.7400     588
150.7600     569
150.7800     535
150.8000     556
150.8200     590
150.8400     576
150.8600     549
150.8800     559
150.9000     571
150.9200     526
150.9400     474
150.9600     504
150.9800     556
151.0000     561
151.0200     553
151.0400     572
151.0600     589
151.0800     541
151.1000     482
151.1200     500
151.1400     541
151.1600     550
151.1800     546
151.2000     540
151.2200     540
151.2400     569
151.2600     600
151.2800     586
151.3000     555
151.3200     532
151.3400     525
151.3600     585
151.3800     655
151.4000     645
151.4200     610
151.4400     613
151.4600     626
151.4800     613
151.5000     586
151.5200     549
151.5400     516
151.5600     528
151.5800     561
151.6000     611
151.6200     676
151.6400     789
151.6600     887
151.6800     815
151.7000     697
151.7200     687
151.7400     716
151.7600     719
151.7800     704
151.8000     657
151.8200     614
151.8400     654
151.8600     718
151.8800     732
151.9000     728
151.9200     729
151.9400     738
151.9600     772
151.9800     810
152.0000     815
152.0200     797
152.0400     729
152.0600     657
152.0800     668
152.1000     707
152.1200     721
152.1400     720
152.1600     691
152.1800     666
152.2000     719
152.2200     800
152.2400     864
152.2600     911
152.2800     903
152.3000     884
152.3200     919
152.3400     967
152.3600     976
152.3800     963
152.4000     914
152.4200     872
152.4400     945
152.4600    1037
152.4800    1001
152.5000     928
152.5200     931
152.5400     964
152.5600     991
152.5800    1012
152.6000    1021
152.6200    1038
152.6400    1118
152.6600    1200
152.6800    1162
152.7000    1093
152.7200    1104
152.7400    1137
152.7600    1115
152.7800    1088
152.8000    1144
152.8200    1226
152.8400    1268
152.8600    1290
152.8800    1292
152.9000    1273
152.9200    1184
152.9400    1097
152.9600    1157
152.9800    1263
153.0000    1311
153.0200    1329
153.0400    1320
153.0600    1303
153.0800    1298
153.1000    1304
153.1200    1345
153.1400    1393
153.1600    1409
153.1800    1418
153.2000    1454
153.2200    1500
153.2400    1549
153.2600    1574
153.2800    1469
153.3000    1347
153.3200    1393
153.3400    1500
153.3600    1571
153.3800    1626
153.4000    1677
153.4200    1712
153.4400    1672
153.4600    1619
153.4800    1646
153.5000    1711
153.5200    1799
153.5400    1887
153.5600    1922
153.5800    1938
153.6000    1964
153.6200    1978
153.6400    1910
153.6600    1824
153.6800    1806
153.7000    1822
153.7200    1863
153.7400    1899
153.7600    1855
153.7800    1801
153.8000    1855
153.8200    1948
153.8400    2011
153.8600    2051
153.8800    2028
153.9000    1989
153.9200    1998
153.9400    2019
153.9600    2005
153.9800    1985
154.0000    2005
154.0200    2028
154.0400    1988
154.0600    1950
154.0800    2052
154.1000    2203
154.1200    2317
154.1400    2403
154.1600    2419
154.1800    2392
154.2000    2292
154.2200    2188
154.2400    2216
154.2600    2281
154.2800    2272
154.3000    2250
154.3200    2303
154.3400    2360
154.3600    2282
154.3800    2170
154.4000    2155
154.4200    2165
154.4400    2110
154.4600    2059
154.4800    2166
154.5000    2310
154.5200    2319
154.5400    2271
154.5600    2205
154.5800    2151
154.6000    2195
154.6200    2262
154.6400    2244
154.6600    2200
154.6800    2193
154.7000    2188
154.7200    2118
154.7400    2037
154.7600    2031
154.7800    2066
154.8000    2159
154.8200    2258
154.8400    2269
154.8600    2251
154.8800    2264
154.9000    2289
154.9200    2306
154.9400    2324
154.9600    2365
154.9800    2385
155.0000    2250
155.0200    2095
155.0400    2143
155.0600    2243
155.0800    2188
155.1000    2098
155.1200    2140
155.1400    2208
155.1600    2144
155.1800    2032
155.2000    1942
155.2200    1879
155.2400    1911
155.2600    1961
155.2800    1909
155.3000    1844
155.3200    1914
155.3400    2018
155.3600    2019
155.3800    1971
155.4000    1884
155.4200    1794
155.4400    1759
155.4600    1763
155.4800    1847
155.5000    1927
155.5200    1829
155.5400    1688
155.5600    1692
155.5800    1748
155.6000    1772
155.6200    1763
155.6400    1651
155.6600    1538
155.6800    1633
155.7000    1782
155.7200    1785
155.7400    1732
155.7600    1694
155.7800    1655
155.8000    1586
155.8200    1515
155.8400    1499
155.8600    1496
155.8800    1448
155.9000    1403
155.9200    1465
155.9400    1568
155.9600    1669
155.9800    1742
156.0000    1680
156.0200    1567
156.0400    1466
156.0600    1379
156.0800    1340
156.1000    1323
156.1200    1323
156.1400    1339
156.1600    1405
156.1800    1471
156.2000    1439
156.2200    1364
156.2400    1274
156.2600    1193
156.2800    1192
156.3000    1217
156.3200    1215
156.3400    1194
156.3600    1126
156.3800    1061
156.4000    1098
156.4200    1167
156.4400    1189
156.4600    1192
156.4800    1192
156.5000    1182
156.5200    1134
156.5400    1085
156.5600    1112
156.5800    1160
156.6000    1153
156.6200    1125
156.6400    1099
156.6600    1073
156.6800    1047
156.7000    1015
156.7200     951
156.7400     885
156.7600     871
156.7800     879
156.8000     895
156.8200     915
156.8400     935
156.8600     958
156.8800     993
156.9000    1032
156.9200    1066
156.9400    1078
156.9600     990
156.9800     875
157.0000     830
157.0200     832
157.0400     934
157.0600    1049
157.0800    1032
157.1000     960
157.1200     875
157.1400     802
157.1600     816
157.1800     851
157.2000     821
157.2200     772
157.2400     763
157.2600     770
157.2800     782
157.3000     790
157.3200     768
157.3400     736
157.3600     714
157.3800     713
157.4000     797
157.4200     890
157.4400     861
157.4600     782
157.4800     695
157.5000     624
157.5200     650
157.5400     706
157.5600     725
157.5800     731
157.6000     744
157.6200     758
157.6400     767
157.6600     780
157.6800     831
157.7000     881
157.7200     850
157.7400     790
157.7600     753
157.7800     718
157.8000     648
157.8200     588
157.8400     648
157.8600     743
157.8800     775
157.9000     780
157.9200     782
157.9400     774
157.9600     727
157.9800     677
158.0000     687
158.0200     712
158.0400     691
158.0600     658
158.0800     665
158.1000     689
158.1200     725
158.1400     754
158.1600     731
158.1800     681
158.2000     599
158.2200     526
158.2400     558
158.2600     621
158.2800     628
158.3000     613
158.3200     604
158.3400     600
158.3600     601
158.3800     598
158.4000     557
158.4200     517
158.4400     557
158.4600     618
158.4800     625
158.5000     609
158.5200     583
158.5400     564
158.5600     599
158.5800     649
158.6000     669
158.6200     675
158.6400     672
158.6600     662
158.6800     631
158.7000     600
158.7200     619
158.7400     643
158.7600     595
158.7800     537
158.8000     571
158.8200     632
158.8400     646
158.8600     642
158.8800     638
158.9000     633
158.9200     625
158.9400     616
158.9600     610
158.9800     599
159.0000     553
159.0200     504
159.0400     508
159.0600     535
159.0800     562
159.1000     585
159.1200     585
159.1400     571
159.1600     537
159.1800     500
159.2000     488
159.2200     492
159.2400     526
159.2600     565
159.2800     571
159.3000     557
159.3200     514
159.3400     472
159.3600     487
159.3800     511
159.4000     467
159.4200     414
159.4400     461
159.4600     532
159.4800     526
159.5000     495
159.5200     489
159.5400     494
159.5600     502
159.5800     505
159.6000     472
159.6200     443
159.6400     510
159.6600     598
159.6800     591
159.7000     555
159.7200     556
159.7400     562
159.7600     521
159.7800     477
159.8000     513
159.8200     566
159.8400     542
159.8600     497
159.8800     497
159.9000     507
159.9200     476
159.9400     442
159.9600     481
159.9800     542
160.0000     565
160.0200     568
160.0400     549
160.0600     525
160.0800     523
160.1000     525
160.1200     505
160.1400     478
160.1600     453
160.1800     433
160.2000     438
160.2200     452
160.2400     469
160.2600     482
160.2800     467
160.3000     445
160.3200     441
160.3400     455
160.3600     517
160.3800     577
160.4000     526
160.4200     449
160.4400     467
160.4600     520
160.4800     561
160.5000     589
160.5200     579
160.5400     553
160.5600     525
160.5800     498
160.6000     474
160.6200     452
160.6400     429
160.6600     413
160.6800     440
160.7000     481
160.7200     507
160.7400     518
160.7600     484
160.7800     434
160.8000     394
160.8200     373
160.8400     429
160.8600     502
160.8800     510
160.9000     485
160.9200     423
160.9400     361
160.9600     371
160.9800     408
161.0000     443
161.0200     470
161.0400     459
161.0600     436
161.0800     431
161.1000     434
161.1200     441
161.1400     449
161.1600     462
161.1800     468
161.2000     432
161.2200     385
161.2400     361
161.2600     350
161.2800     354
161.3000     366
161.3200     388
161.3400     408
161.3600     397
161.3800     379
161.4000     394
161.4200     417
161.4400     412
161.4600     397
161.4800     392
161.5000     400
161.5200     461
161.5400     529
161.5600     526
161.5800     497
161.6000     484
161.6200     470
161.6400     416
161.6600     360
161.6800     373
161.7000     411
161.7200     442
161.7400     462
161.7600     444
161.7800     416
161.8000     418
161.8200     435
161.8400     469
161.8600     504
161.8800     515
161.9000     507
161.9200     444
161.9400     378
161.9600     402
161.9800     450