File: XRD_Tool/XRD_Tool/bin/Debug/LDA_sample_name_56789_Psi-0_20180623-122834.txt
138.0000     254
138.0200     265
138.0400     262
138.0600     257
138.0800     267
138.1000     290
138.1200     345
138.1400     391
138.1600     330
138.1800     243
138.2000     241
138.2200     271
138.2400     288
138.2600     291
138.2800     249
138.3000     208
138.3200     264
138.3400     331
138.3600     264
138.3800     167
138.4000     180
138.4200     235
138.4400     272
138.4600     292
138.4800     262
138.5000     223
138.5200     242
138.5400     280
138.5600     296
138.5800     298
138.6000     265
138.6200     224
138.6400     210
138.6600     207
138.6800     212
138.7000     222
138.7200     241
138.7400     251
138.7600     206
138.7800     155
138.8000     187
138.8200     246
138.8400     272
138.8600     279
138.8800     259
138.9000     232
138.9200     222
138.9400     215
138.9600     193
138.9800     172
139.0000     189
139.0200     220
139.0400     246
139.0600     275
139.0800     324
139.1000     365
139.1200     319
139.1400     248
139.1600     219
139.1800     210
139.2000     218
139.2200     227
139.2400     211
139.2600     197
139.2800     248
139.3000     316
139.3200     346
139.3400     352
139.3600     319
139.3800     283
139.4000     306
139.4200     336
139.4400     291
139.4600     225
139.4800     211
139.5000     212
139.5200     193
139.5400     173
139.5600     195
139.5800     228
139.6000     241
139.6200     242
139.6400     231
139.6600     216
139.6800     205
139.7000     198
139.7200     209
139.7400     215
139.7600     163
139.7800     111
139.8000     177
139.8200     275
139.8400     291
139.8600     283
139.8800     315
139.9000     350
139.9200     317
139.9400     268
139.9600     276
139.9800     301
140.0000     301
140.0200     294
140.0400     305
140.0600     311
140.0800     257
140.1000     198
140.1200     231
140.1400     288
140.1600     280
140.1800     256
140.2000     287
140.2200     329
140.2400     319
140.2600     293
140.2800     287
140.3000     292
140.3200     309
140.3400     323
140.3600     298
140.3800     259
140.4000     220
140.4200     184
140.4400     158
140.4600     147
140.4800     191
140.5000     247
140.5200     250
140.5400     234
140.5600     228
140.5800     217
140.6000     166
140.6200     118
140.6400     170
140.6600     249
140.6800     266
140.7000     256
140.7200     236
140.7400     206
140.7600     145
140.7800      92
140.8000     145
140.8200     226
140.8400     231
140.8600     213
140.8800     236
140.9000     272
140.9200     287
140.9400     295
140.9600     314
140.9800     336
141.0000     348
141.0200     350
141.0400     322
141.0600     285
141.0800     263
141.1000     255
141.1200     287
141.1400     324
141.1600     301
141.1800     258
141.2000     228
141.2200     211
141.2400     229
141.2600     252
141.2800     225
141.3000     196
141.3200     249
141.3400     314
141.3600     274
141.3800     208
141.4000     223
141.4200     270
141.4400     309
141.4600     331
141.4800     283
141.5000     220
141.5200     222
141.5400     247
141.5600     257
141.5800     255
141.6000     221
141.6200     190
141.6400     236
141.6600     300
141.6800     306
141.7000     284
141.7200     242
141.7400     212
141.7600     282
141.7800     370
141.8000     348
141.8200     290
141.8400     272
141.8600     270
141.8800     269
141.9000     270
141.9200     276
141.9400     286
141.9600     306
141.9800     319
142.0000     277
142.0200     220
142.0400     198
142.0600     201
142.0800     258
142.1000     319
142.1200     296
142.1400     246
142.1600     225
142.1800     218
142.2000     227
142.2200     242
142.2400     247
142.2600     253
142.2800     279
142.3000     305
142.3200     288
142.3400     259
142.3600     255
142.3800     264
142.4000     291
142.4200     312
142.4400     268
142.4600     209
142.4800     203
142.5000     232
142.5200     321
142.5400     407
142.5600     350
142.5800     254
142.6000     248
142.6200     278
142.6400     313
142.6600     350
142.6800     395
142.7000     419
142.7200     322
142.7400     206
142.7600     245
142.7800     320
142.8000     272
142.8200     199
142.8400     254
142.8600     345
142.8800     363
142.9000     352
142.9200     349
142.9400     345
142.9600     316
142.9800     283
143.0000     275
143.0200     286
143.0400     339
143.0600     395
143.0800     384
143.1000     348
143.1200     324
143.1400     311
143.1600     333
143.1800     350
143.2000     275
143.2200     192
143.2400     254
143.2600     358
143.2800     382
143.3000     366
143.3200     305
143.3400     246
143.3600     280
143.3800     340
143.4000     337
143.4200     311
143.4400     293
143.4600     280
143.4800     272
143.5000     271
143.5200     293
143.5400     324
143.5600     349
143.5800     361
143.6000     326
143.6200     280
143.6400     271
143.6600     267
143.6800     216
143.7000     166
143.7200     214
143.7400     284
143.7600     261
143.7800     211
143.8000     211
143.8200     241
143.8400     323
143.8600     407
143.8800     402
143.9000     365
143.9200     343
143.9400     329
143.9600     325
143.9800     318
144.0000     271
144.0200     229
144.0400     284
144.0600     351
144.0800     286
144.1000     196
144.1200     243
144.1400     330
144.1600     345
144.1800     338
144.2000     363
144.2200     390
144.2400     365
144.2600     329
144.2800     341
144.3000     366
144.3200     356
144.3400     334
144.3600     317
144.3800     301
144.4000     275
144.4200     254
144.4400     278
144.4600     316
144.4800     336
144.5000     348
144.5200     358
144.5400     359
144.5600     315
144.5800     265
144.6000     272
144.6200     301
144.6400     326
144.6600     346
144.6800     341
144.7000     328
144.7200     318
144.7400     307
144.7600     276
144.7800     253
144.8000     307
144.8200     372
144.8400     345
144.8600     296
144.8800     319
144.9000     357
144.9200     323
144.9400     269
144.9600     257
144.9800     266
145.0000     303
145.0200     338
145.0400     307
145.0600     254
145.0800     231
145.1000     231
145.1200     289
145.1400     350
145.1600     306
145.1800     238
145.2000     257
145.2200     299
145.2400     286
145.2600     263
145.2800     308
145.3000     371
145.3200     386
145.3400     383
145.3600     387
145.3800     391
145.4000     390
145.4200     380
145.4400     338
145.4600     294
145.4800     297
145.5000     311
145.5200     286
145.5400     261
145.5600     310
145.5800     368
145.6000     329
145.6200     268
145.6400     294
145.6600     340
145.6800     316
145.7000     272
145.7200     268
145.7400     281
145.7600     299
145.7800     312
145.8000     288
145.8200     260
145.8400     279
145.8600     312
145.8800     320
145.9000     316
145.9200     302
145.9400     288
145.9600     295
145.9800     309
146.0000     308
146.0200     306
146.0400     324
146.0600     346
146.0800     346
146.1000     346
146.1200     386
146.1400     429
146.1600     406
146.1800     352
146.2000     283
146.2200     220
146.2400     220
146.2600     244
146.2800     256
146.3000     265
146.3200     274
146.3400     287
146.3600     317
146.3800     336
146.4000     270
146.4200     196
146.4400     255
146.4600     353
146.4800     381
146.5000     375
146.5200     338
146.5400     294
146.5600     285
146.5800     285
146.6000     267
146.6200     244
146.6400     237
146.6600     243
146.6800     278
146.7000     308
146.7200     263
146.7400     207
146.7600     254
146.7800     332
146.8000     355
146.8200     352
146.8400     321
146.8600     286
146.8800     291
146.9000     306
146.9200     296
146.9400     285
146.9600     317
146.9800     367
147.0000     414
147.0200     443
147.0400     387
147.0600     308
147.0800     287
147.1000     285
147.1200     263
147.1400     247
147.1600     301
147.1800     365
147.2000     341
147.2200     291
147.2400     289
147.2600     310
147.2800     343
147.3000     375
147.3200     380
147.3400     368
147.3600     328
147.3800     296
147.4000     364
147.4200     447
147.4400     403
147.4600     318
147.4800     276
147.5000     264
147.5200     307
147.5400     370
147.5600     416
147.5800     449
147.6000     442
147.6200     417
147.6400     379
147.6600     343
147.6800     345
147.7000     360
147.7200     360
147.7400     353
147.7600     343
147.7800     336
147.8000     354
147.8200     381
147.8400     405
147.8600     420
147.8800     400
147.9000     373
147.9200     381
147.9400     399
147.9600     402
147.9800     398
148.0000     396
148.0200     388
148.0400     351
148.0600     313
148.0800     320
148.1000     342
148.1200     341
148.1400     337
148.1600     366
148.1800     404
148.2000     420
148.2200     429
148.2400     443
148.2600     462
148.2800     493
148.3000     520
148.3200     500
148.3400     466
148.3600     450
148.3800     436
148.4000     389
148.4200     342
148.4400     363
148.4600     398
148.4800     368
148.5000     329
148.5200     374
148.5400     442
148.5600     465
148.5800     465
148.6000     448
148.6200     431
148.6400     444
148.6600     466
148.6800     468
148.7000     459
148.7200     433
148.7400     412
148.7600     446
148.7800     488
148.8000     459
148.8200     407
148.8400     386
148.8600     379
148.8800     376
148.9000     380
148.9200     414
148.9400     454
148.9600     464
148.9800     456
149.0000     421
149.0200     383
149.0400     387
149.0600     404
149.0800     404
149.1000     394
149.1200     366
149.1400     344
149.1600     390
149.1800     450
149.2000     438
149.2200     411
149.2400     446
149.2600     489
149.2800     449
149.3000     386
149.3200     379
149.3400     404
149.3600     473
149.3800     539
149.4000     505
149.4200     438
149.4400     409
149.4600     396
149.4800     386
149.5000     383
149.5200     405
149.5400     428
149.5600     401
149.5800     365
149.6000     379
149.6200     408
149.6400     409
149.6600     408
149.6800     452
149.7000     495
149.7200     444
149.7400     382
149.7600     445
149.7800     537
149.8000     517
149.8200     466
149.8400     475
149.8600     495
149.8800     442
149.9000     372
149.9200     363
149.9400     378
149.9600     387
149.9800     399
150.0000     444
150.0200     489
150.0400     469
150.0600     431
150.0800     433
150.1000     445
150.1200     429
150.1400     410
150.1600     434
150.1800     465
150.2000     443
150.2200     412
150.2400     448
150.2600     502
150.2800     521
150.3000     524
150.3200     520
150.3400     513
150.3600     499
150.3800     485
150.4000     480
150.4200     477
150.4400     472
150.4600     466
150.4800     457
150.5000     455
150.5200     493
150.5400     538
150.5600     541
150.5800     535
150.6000     566
150.6200     602
150.6400     589
150.6600     564
150.6800     571
150.7000     581
150.7200     543
150.7400     487
150.7600     441
150.7800     415
150.8000     474
150.8200     543
150.8400     499
150.8600     432
150.8800     480
150.9000     561
150.9200     582
150.9400     580
150.9600     588
150.9800     601
151.0000     621
151.0200     637
151.0400     626
151.0600     610
151.0800     626
151.1000     648
151.1200     643
151.1400     641
151.1600     709
151.1800     785
151.2000     760
151.2200     706
151.2400     713
151.2600     734
151.2800     700
151.3000     652
151.3200     639
151.3400     640
151.3600     638
151.3800     641
151.4000     677
151.4200     725
151.4400     761
151.4600     784
151.4800     757
151.5000     708
151.5200     646
151.5400     598
151.5600     650
151.5800     729
151.6000     745
151.6200     747
151.6400     810
151.6600     880
151.6800     855
151.7000     796
151.7200     750
151.7400     724
151.7600     767
151.7800     827
151.8000     840
151.8200     823
151.8400     748
151.8600     678
151.8800     749
151.9000     861
151.9200     888
151.9400     881
151.9600     867
151.9800     877
152.0000    1014
152.0200    1155
152.0400    1061
152.0600     907
152.0800     925
152.1000    1009
152.1200    1084
152.1400    1136
152.1600    1088
152.1800    1015
152.2000    1014
152.2200    1041
152.2400    1066
152.2600    1093
152.2800    1130
152.3000    1170
152.3200    1202
152.3400    1220
152.3600    1188
152.3800    1148
152.4000    1168
152.4200    1200
152.4400    1172
152.4600    1133
152.4800    1162
152.5000    1215
152.5200    1253
152.5400    1289
152.5600    1345
152.5800    1403
152.6000    1426
152.6200    1444
152.6400    1504
152.6600    1558
152.6800    1504
152.7000    1437
152.7200    1526
152.7400    1657
152.7600    1682
152.7800    1664
152.8000    1646
152.8200    1641
152.8400    1706
152.8600    1789
152.8800    1827
152.9000    1845
152.9200    1856
152.9400    1860
152.9600    1843
152.9800    1820
153.0000    1815
153.0200    1813
153.0400    1791
153.0600    1777
153.0800    1845
153.1000    1939
153.1200    2003
153.1400    2055
153.1600    2105
153.1800    2157
153.2000    2217
153.2200    2270
153.2400    2263
153.2600    2221
153.2800    2116
153.3000    2019
153.3200    2092
153.3400    2215
153.3600    2255
153.3800    2253
153.4000    2212
153.4200    2173
153.4400    2214
153.4600    2278
153.4800    2294
153.5000    2297
153.5200    2338
153.5400    2393
153.5600    2438
153.5800    2469
153.6000    2445
153.6200    2395
153.6400    2322
153.6600    2281
153.6800    2448
153.7000    2651
153.7200    2617
153.7400    2513
153.7600    2524
153.7800    2560
153.8000    2488
153.8200    2405
153.8400    2489
153.8600    2609
153.8800    2584
153.9000    2525
153.9200    2591
153.9400    2684
153.9600    2665
153.9800    2608
154.0000    2583
154.0200    2556
154.0400    2454
154.0600    2348
154.0800    2370
154.1000    2465
154.1200    2663
154.1400    2863
154.1600    2858
154.1800    2794
154.2000    2838
154.2200    2895
154.2400    2797
154.2600    2651
154.2800    2572
154.3000    2534
154.3200    2569
154.3400    2633
154.3600    2692
154.3800    2739
154.4000    2731
154.4200    2688
154.4400    2577
154.4600    2456
154.4800    2425
154.5000    2435
154.5200    2473
154.5400    2514
154.5600    2510
154.5800    2474
154.6000    2366
154.6200    2262
154.6400    2313
154.6600    2396
154.6800    2326
154.7000    2212
154.7200    2186
154.7400    2191
154.7600    2173
154.7800    2156
154.8000    2192
154.8200    2251
154.8400    2313
154.8600    2363
154.8800    2343
154.9000    2295
154.9200    2244
154.9400    2213
154.9600    2290
154.9800    2365
155.0000    2210
155.0200    2005
155.0400    2007
155.0600    2065
155.0800    1996
155.1000    1899
155.1200    1912
155.1400    1954
155.1600    1914
155.1800    1847
155.2000    1804
155.2200    1767
155.2400    1715
155.2600    1674
155.2800    1723
155.3000    1796
155.3200    1812
155.3400    1803
155.3600    1781
155.3800    1749
155.4000    1695
155.4200    1648
155.4400    1678
155.4600    1725
155.4800    1709
155.5000    1651
155.5200    1518
155.5400    1379
155.5600    1363
155.5800    1400
155.6000    1454
155.6200    1503
155.6400    1499
155.6600    1473
155.6800    1450
155.7000    1441
155.7200    1495
155.7400    1550
155.7600    1477
155.7800    1368
155.8000    1334
155.8200    1339
155.8400    1387
155.8600    1439
155.8800    1421
155.9000    1374
155.9200    1324
155.9400    1274
155.9600    1236
155.9800    1208
156.0000    1210
156.0200    1219
156.0400    1203
156.0600    1178
156.0800    1159
156.1000    1143
156.1200    1126
156.1400    1110
156.1600    1107
156.1800    1109
156.2000    1111
156.2200    1116
156.2400    1133
156.2600    1136
156.2800    1049
156.3000     944
156.3200     934
156.3400     957
156.3600     958
156.3800     962
156.4000    1026
156.4200    1104
156.4400    1131
156.4600    1126
156.4800    1066
156.5000     987
156.5200     923
156.5400     875
156.5600     877
156.5800     897
156.6000     912
156.6200     929
156.6400     974
156.6600    1009
156.6800     939
156.7000     835
156.7200     768
156.7400     723
156.7600     716
156.7800     720
156.8000     704
156.8200     688
156.8400     709
156.8600     741
156.8800     755
156.9000     776
156.9200     877
156.9400     964
156.9600     826
156.9800     637
157.0000     643
157.0200     728
157.0400     816
157.0600     877
157.0800     791
157.1000     677
157.1200     710
157.1400     798
157.1600     869
157.1800     903
157.2000     786
157.2200     637
157.2400     638
157.2600     694
157.2800     728
157.3000     749
157.3200     745
157.3400     728
157.3600     694
157.3800     668
157.4000     712
157.4200     765
157.4400     720
157.4600     638
157.4800     569
157.5000     524
157.5200     574
157.5400     650
157.5600     661
157.5800     636
157.6000     556
157.6200     480
157.6400     534
157.6600     630
157.6800     674
157.7000     700
157.7200     735
157.7400     749
157.7600     644
157.7800     525
157.8000     566
157.8200     654
157.8400     649
157.8600     616
157.8800     633
157.9000     661
157.9200     649
157.9400     625
157.9600     619
157.9800     627
158.0000     665
158.0200     697
158.0400     641
158.0600     564
158.0800     564
158.1000     576
158.1200     498
158.1400     404
158.1600     411
158.1800     455
158.2000     476
158.2200     487
158.2400     491
158.2600     496
158.2800     513
158.3000     526
158.3200     497
158.3400     470
158.3600     538
158.3800     624
158.4000     610
158.4200     562
158.4400     546
158.4600     538
158.4800     508
158.5000     484
158.5200     530
158.5400     588
158.5600     568
158.5800     512
158.6000     436
158.6200     375
158.6400     427
158.6600     507
158.6800     497
158.7000     460
158.7200     466
158.7400     472
158.7600     387
158.7800     298
158.8000     377
158.8200     509
158.8400     569
158.8600     591
158.8800     563
158.9000     518
158.9200     485
158.9400     462
158.9600     462
158.9800     469
159.0000     463
159.0200     445
159.0400     399
159.0600     352
159.0800     361
159.1000     383
159.1200     354
159.1400     322
159.1600     380
159.1800     459
159.2000     464
159.2200     448
159.2400     472
159.2600     498
159.2800     454
159.3000     394
159.3200     394
159.3400     416
159.3600     427
159.3800     438
159.4000     474
159.4200     507
159.4400     478
159.4600     432
159.4800     423
159.5000     424
159.5200     405
159.5400     383
159.5600     394
159.5800     412
159.6000     400
159.6200     375
159.6400     340
159.6600     313
159.6800     339
159.7000     385
159.7200     418
159.7400     440
159.7600     435
159.7800     420
159.8000     409
159.8200     394
159.8400     354
159.8600     310
159.8800     296
159.9000     302
159.9200     351
159.9400     420
159.9600     501
159.9800     563
160.0000     510
160.0200     421
160.0400     389
160.0600     379
160.0800     372
160.1000     370
160.1200     386
160.1400     402
160.1600     373
160.1800     338
160.2000     355
160.2200     387
160.2400     390
160.2600     392
160.2800     443
160.3000     488
160.3200     411
160.3400     300
160.3600     266
160.3800     271
160.4000     323
160.4200     386
160.4400     419
160.4600     430
160.4800     399
160.5000     363
160.5200     382
160.5400     412
160.5600     380
160.5800     332
160.6000     324
160.6200     330
160.6400     321
160.6600     307
160.6800     293
160.7000     283
160.7200     290
160.7400     300
160.7600     290
160.7800     275
160.8000     278
160.8200     285
160.8400     275
160.8600     270
160.8800     320
160.9000     376
160.9200     351
160.9400     303
160.9600     310
160.9800     338
161.0000     366
161.0200     379
161.0400     315
161.0600     241
161.0800     265
161.1000     317
161.1200     304
161.1400     277
161.1600     307
161.1800     349
161.2000     339
161.2200     314
161.2400     312
161.2600     328
161.2800     383
161.3000     448
161.3200     491
161.3400     504
161.3600     412
161.3800     301
161.4000     307
161.4200     351
161.4400     358
161.4600     348
161.4800     327
161.5000     310
161.5200     338
161.5400     380
161.5600     405
161.5800     405
161.6000     317
161.6200     216
161.6400     230
161.6600     279
161.6800     273
161.7000     254
161.7200     282
161.7400     318
161.7600     305
161.7800     274
161.8000     247
161.8200     226
161.8400     233
161.8600     251
161.8800     266
161.9000     275
161.9200     264
161.9400     251
161.9600     275
161.9800     308