File: XRD_Tool/XRD_Tool/bin/Debug/LDA_sample_name_56789_Psi-24_20180623-124001.txt
138.0000     215
138.0200     224
138.0400     230
138.0600     233
138.0800     236
138.1000     238
138.1200     240
138.1400     239
138.1600     225
138.1800     208
138.2000     209
138.2200     220
138.2400     248
138.2600     268
138.2800     216
138.3000     149
138.3200     147
138.3400     171
138.3600     192
138.3800     204
138.4000     176
138.4200     142
138.4400     161
138.4600     194
138.4800     192
138.5000     185
138.5200     220
138.5400     258
138.5600     229
138.5800     190
138.6000     233
138.6200     290
138.6400     253
138.6600     197
138.6800     226
138.7000     280
138.7200     282
138.7400     262
138.7600     232
138.7800     203
138.8000     196
138.8200     197
138.8400     196
138.8600     193
138.8800     182
138.9000     164
138.9200     126
138.9400      92
138.9600     118
138.9800     163
139.0000     183
139.0200     197
139.0400     231
139.0600     265
139.0800     259
139.1000     242
139.1200     248
139.1400     264
139.1600     277
139.1800     285
139.2000     273
139.2200     257
139.2400     266
139.2600     275
139.2800     239
139.3000     190
139.3200     168
139.3400     161
139.3600     179
139.3800     209
139.4000     249
139.4200     289
139.4400     312
139.4600     319
139.4800     279
139.5000     223
139.5200     172
139.5400     132
139.5600     134
139.5800     158
139.6000     212
139.6200     264
139.6400     248
139.6600     216
139.6800     249
139.7000     301
139.7200     321
139.7400     318
139.7600     262
139.7800     198
139.8000     202
139.8200     228
139.8400     222
139.8600     209
139.8800     218
139.9000     226
139.9200     186
139.9400     142
139.9600     181
139.9800     248
140.0000     288
140.0200     308
140.0400     275
140.0600     223
140.0800     179
140.1000     153
140.1200     194
140.1400     250
140.1600     251
140.1800     234
140.2000     242
140.2200     261
140.2400     285
140.2600     300
140.2800     263
140.3000     210
140.3200     181
140.3400     175
140.3600     239
140.3800     311
140.4000     283
140.4200     228
140.4400     239
140.4600     268
140.4800     251
140.5000     220
140.5200     219
140.5400     233
140.5600     270
140.5800     304
140.6000     277
140.6200     234
140.6400     237
140.6600     256
140.6800     260
140.7000     261
140.7200     272
140.7400     276
140.7600     222
140.7800     155
140.8000     146
140.8200     172
140.8400     255
140.8600     341
140.8800     327
140.9000     286
140.9200     308
140.9400     342
140.9600     308
140.9800     260
141.0000     280
141.0200     314
141.0400     276
141.0600     225
141.0800     246
141.1000     282
141.1200     248
141.1400     200
141.1600     220
141.1800     257
141.2000     241
141.2200     211
141.2400     224
141.2600     252
141.2800     270
141.3000     280
141.3200     270
141.3400     252
141.3600     234
141.3800     224
141.4000     249
141.4200     278
141.4400     254
141.4600     216
141.4800     216
141.5000     232
141.5200     246
141.5400     261
141.5600     278
141.5800     289
141.6000     268
141.6200     241
141.6400     246
141.6600     258
141.6800     242
141.7000     221
141.7200     238
141.7400     264
141.7600     258
141.7800     241
141.8000     229
141.8200     227
141.8400     262
141.8600     306
141.8800     320
141.9000     328
141.9200     364
141.9400     401
141.9600     381
141.9800     339
142.0000     292
142.0200     249
142.0400     229
142.0600     227
142.0800     264
142.1000     310
142.1200     329
142.1400     332
142.1600     310
142.1800     282
142.2000     274
142.2200     284
142.2400     342
142.2600     397
142.2800     332
142.3000     245
142.3200     280
142.3400     348
142.3600     336
142.3800     301
142.4000     312
142.4200     328
142.4400     274
142.4600     210
142.4800     233
142.5000     285
142.5200     310
142.5400     322
142.5600     323
142.5800     312
142.6000     267
142.6200     220
142.6400     225
142.6600     256
142.6800     314
142.7000     367
142.7200     346
142.7400     302
142.7600     285
142.7800     275
142.8000     243
142.8200     211
142.8400     219
142.8600     249
142.8800     307
142.9000     372
142.9200     411
142.9400     428
142.9600     391
142.9800     343
143.0000     340
143.0200     355
143.0400     363
143.0600     366
143.0800     349
143.1000     322
143.1200     278
143.1400     237
143.1600     238
143.1800     260
143.2000     302
143.2200     336
143.2400     293
143.2600     237
143.2800     270
143.3000     327
143.3200     330
143.3400     318
143.3600     331
143.3800     345
143.4000     309
143.4200     264
143.4400     276
143.4600     304
143.4800     300
143.5000     288
143.5200     298
143.5400     312
143.5600     309
143.5800     302
143.6000     307
143.6200     312
143.6400     294
143.6600     275
143.6800     304
143.7000     343
143.7200     334
143.7400     312
143.7600     321
143.7800     341
143.8000     346
143.8200     338
143.8400     290
143.8600     248
143.8800     316
143.9000     410
143.9200     411
143.9400     389
143.9600     440
143.9800     497
144.0000     439
144.0200     347
144.0400     317
144.0600     309
144.0800     291
144.1000     280
144.1200     326
144.1400     378
144.1600     351
144.1800     303
144.2000     300
144.2200     320
144.2400     360
144.2600     400
144.2800     397
144.3000     372
144.3200     323
144.3400     276
144.3600     284
144.3800     306
144.4000     285
144.4200     257
144.4400     277
144.4600     310
144.4800     306
144.5000     292
144.5200     298
144.5400     312
144.5600     326
144.5800     338
144.6000     340
144.6200     348
144.6400     405
144.6600     458
144.6800     397
144.7000     306
144.7200     290
144.7400     299
144.7600     278
144.7800     258
144.8000     296
144.8200     343
144.8400     315
144.8600     276
144.8800     329
144.9000     404
144.9200     404
144.9400     373
144.9600     339
144.9800     307
145.0000     300
145.0200     308
145.0400     349
145.0600     392
145.0800     377
145.1000     345
145.1200     346
145.1400     353
145.1600     320
145.1800     283
145.2000     303
145.2200     338
145.2400     341
145.2600     330
145.2800     309
145.3000     299
145.3200     356
145.3400     425
145.3600     424
145.3800     391
145.4000     345
145.4200     305
145.4400     330
145.4600     379
145.4800     423
145.5000     449
145.5200     397
145.5400     322
145.5600     297
145.5800     298
145.6000     337
145.6200     383
145.6400     389
145.6600     373
145.6800     324
145.7000     277
145.7200     307
145.7400     363
145.7600     402
145.7800     417
145.8000     347
145.8200     260
145.8400     255
145.8600     297
145.8800     409
145.9000     514
145.9200     444
145.9400     325
145.9600     312
145.9800     333
146.0000     308
146.0200     279
146.0400     328
146.0600     397
146.0800     409
146.1000     398
146.1200     379
146.1400     356
146.1600     326
146.1800     302
146.2000     318
146.2200     343
146.2400     335
146.2600     324
146.2800     371
146.3000     428
146.3200     419
146.3400     385
146.3600     361
146.3800     346
146.4000     357
146.4200     375
146.4400     368
146.4600     349
146.4800     312
146.5000     285
146.5200     344
146.5400     417
146.5600     380
146.5800     315
146.6000     322
146.6200     350
146.6400     341
146.6600     314
146.6800     270
146.7000     236
146.7200     277
146.7400     343
146.7600     377
146.7800     397
146.8000     404
146.8200     404
146.8400     392
146.8600     380
146.8800     390
146.9000     403
146.9200     389
146.9400     374
146.9600     404
146.9800     447
147.0000     462
147.0200     463
147.0400     449
147.0600     425
147.0800     384
147.1000     349
147.1200     381
147.1400     433
147.1600     458
147.1800     458
147.2000     387
147.2200     313
147.2400     369
147.2600     455
147.2800     432
147.3000     371
147.3200     330
147.3400     313
147.3600     371
147.3800     448
147.4000     470
147.4200     462
147.4400     416
147.4600     371
147.4800     414
147.5000     468
147.5200     402
147.5400     310
147.5600     328
147.5800     379
147.6000     370
147.6200     345
147.6400     352
147.6600     373
147.6800     400
147.7000     425
147.7200     420
147.7400     403
147.7600     378
147.7800     357
147.8000     376
147.8200     416
147.8400     484
147.8600     540
147.8800     476
147.9000     392
147.9200     446
147.9400     536
147.9600     521
147.9800     474
148.0000     474
148.0200     479
148.0400     419
148.0600     344
148.0800     322
148.1000     328
148.1200     362
148.1400     408
148.1600     449
148.1800     476
148.2000     440
148.2200     392
148.2400     412
148.2600     447
148.2800     414
148.3000     366
148.3200     381
148.3400     410
148.3600     384
148.3800     344
148.4000     342
148.4200     367
148.4400     446
148.4600     526
148.4800     506
148.5000     454
148.5200     443
148.5400     450
148.5600     461
148.5800     476
148.6000     507
148.6200     532
148.6400     492
148.6600     435
148.6800     420
148.7000     420
148.7200     410
148.7400     407
148.7600     462
148.7800     519
148.8000     471
148.8200     401
148.8400     431
148.8600     473
148.8800     375
148.9000     255
148.9200     305
148.9400     402
148.9600     391
148.9800     349
149.0000     365
149.0200     397
149.0400     391
149.0600     386
149.0800     466
149.1000     556
149.1200     526
149.1400     457
149.1600     433
149.1800     428
149.2000     431
149.2200     439
149.2400     457
149.2600     472
149.2800     452
149.3000     429
149.3200     460
149.3400     501
149.3600     488
149.3800     455
149.4000     422
149.4200     396
149.4400     397
149.4600     405
149.4800     396
149.5000     383
149.5200     385
149.5400     400
149.5600     448
149.5800     495
149.6000     462
149.6200     406
149.6400     388
149.6600     389
149.6800     400
149.7000     417
149.7200     441
149.7400     464
149.7600     470
149.7800     463
149.8000     419
149.8200     375
149.8400     396
149.8600     441
149.8800     473
149.9000     495
149.9200     499
149.9400     488
149.9600     442
149.9800     392
150.0000     392
150.0200     412
150.0400     432
150.0600     455
150.0800     498
150.1000     542
150.1200     559
150.1400     563
150.1600     556
150.1800     538
150.2000     493
150.2200     447
150.2400     451
150.2600     465
150.2800     427
150.3000     385
150.3200     422
150.3400     482
150.3600     503
150.3800     514
150.4000     549
150.4200     579
150.4400     542
150.4600     486
150.4800     468
150.5000     477
150.5200     536
150.5400     599
150.5600     574
150.5800     531
150.6000     576
150.6200     637
150.6400     603
150.6600     536
150.6800     496
150.7000     482
150.7200     548
150.7400     618
150.7600     546
150.7800     441
150.8000     453
150.8200     506
150.8400     537
150.8600     551
150.8800     525
150.9000     490
150.9200     487
150.9400     499
150.9600     519
150.9800     539
151.0000     541
151.0200     541
151.0400     573
151.0600     619
151.0800     675
151.1000     718
151.1200     677
151.1400     609
151.1600     570
151.1800     548
151.2000     559
151.2200     594
151.2400     681
151.2600     761
151.2800     704
151.3000     600
151.3200     536
151.3400     505
151.3600     556
151.3800     622
151.4000     603
151.4200     565
151.4400     610
151.4600     676
151.4800     681
151.5000     663
151.5200     655
151.5400     638
151.5600     559
151.5800     485
151.6000     561
151.6200     679
151.6400     709
151.6600     704
151.6800     704
151.7000     708
151.7200     724
151.7400     739
151.7600     734
151.7800     720
151.8000     709
151.8200     705
151.8400     731
151.8600     769
151.8800     806
151.9000     835
151.9200     832
151.9400     819
151.9600     823
151.9800     829
152.0000     817
152.0200     791
152.0400     735
152.0600     694
152.0800     788
152.1000     909
152.1200     895
152.1400     833
152.1600     806
152.1800     798
152.2000     818
152.2200     845
152.2400     845
152.2600     834
152.2800     817
152.3000     812
152.3200     885
152.3400     972
152.3600     976
152.3800     953
152.4000     965
152.4200     993
152.4400    1033
152.4600    1075
152.4800    1110
152.5000    1127
152.5200    1066
152.5400     991
152.5600    1001
152.5800    1041
152.6000    1066
152.6200    1088
152.6400    1128
152.6600    1158
152.6800    1095
152.7000    1027
152.7200    1124
152.7400    1262
152.7600    1283
152.7800    1264
152.8000    1275
152.8200    1299
152.8400    1321
152.8600    1344
152.8800    1372
152.9000    1399
152.9200    1411
152.9400    1418
152.9600    1430
152.9800    1431
153.0000    1364
153.0200    1276
153.0400    1218
153.0600    1199
153.0800    1315
153.1000    1467
153.1200    1531
153.1400    1558
153.1600    1580
153.1800    1597
153.2000    1599
153.2200    1604
153.2400    1655
153.2600    1701
153.2800    1627
153.3000    1537
153.3200    1606
153.3400    1736
153.3600    1856
153.3800    1952
153.4000    1953
153.4200    1911
153.4400    1852
153.4600    1796
153.4800    1787
153.5000    1808
153.5200    1882
153.5400    1981
153.5600    2097
153.5800    2192
153.6000    2154
153.6200    2065
153.6400    1991
153.6600    1944
153.6800    2007
153.7000    2100
153.7200    2130
153.7400    2147
153.7600    2229
153.7800    2316
153.8000    2303
153.8200    2255
153.8400    2239
153.8600    2226
153.8800    2169
153.9000    2128
153.9200    2249
153.9400    2392
153.9600    2323
153.9800    2196
154.0000    2201
154.0200    2225
154.0400    2081
154.0600    1913
154.0800    1970
154.1000    2115
154.1200    2253
154.1400    2369
154.1600    2385
154.1800    2369
154.2000    2391
154.2200    2413
154.2400    2350
154.2600    2282
154.2800    2352
154.3000    2453
154.3200    2424
154.3400    2348
154.3600    2294
154.3800    2258
154.4000    2275
154.4200    2300
154.4400    2259
154.4600    2217
154.4800    2310
154.5000    2433
154.5200    2444
154.5400    2410
154.5600    2376
154.5800    2345
154.6000    2324
154.6200    2307
154.6400    2282
154.6600    2268
154.6800    2329
154.7000    2400
154.7200    2378
154.7400    2318
154.7600    2261
154.7800    2227
154.8000    2303
154.8200    2390
154.8400    2312
154.8600    2200
154.8800    2245
154.9000    2330
154.9200    2303
154.9400    2233
154.9600    2170
154.9800    2127
155.0000    2172
155.0200    2244
155.0400    2273
155.0600    2252
155.0800    2071
155.1000    1869
155.1200    1885
155.1400    1974
155.1600    1986
155.1800    1966
155.2000    1933
155.2200    1887
155.2400    1804
155.2600    1737
155.2800    1822
155.3000    1936
155.3200    1893
155.3400    1811
155.3600    1849
155.3800    1910
155.4000    1841
155.4200    1737
155.4400    1713
155.4600    1717
155.4800    1701
155.5000    1676
155.5200    1644
155.5400    1618
155.5600    1632
155.5800    1636
155.6000    1510
155.6200    1369
155.6400    1410
155.6600    1509
155.6800    1536
155.7000    1524
155.7200    1457
155.7400    1394
155.7600    1458
155.7800    1553
155.8000    1555
155.8200    1531
155.8400    1568
155.8600    1611
155.8800    1554
155.9000    1463
155.9200    1394
155.9400    1347
155.9600    1370
155.9800    1418
156.0000    1456
156.0200    1464
156.0400    1342
156.0600    1194
156.0800    1179
156.1000    1219
156.1200    1269
156.1400    1319
156.1600    1349
156.1800    1362
156.2000    1329
156.2200    1283
156.2400    1272
156.2600    1278
156.2800    1302
156.3000    1322
156.3200    1279
156.3400    1212
156.3600    1153
156.3800    1105
156.4000    1094
156.4200    1098
156.4400    1107
156.4600    1124
156.4800    1176
156.5000    1219
156.5200    1150
156.5400    1054
156.5600    1043
156.5800    1057
156.6000    1018
156.6200     972
156.6400     997
156.6600    1039
156.6800    1021
156.7000     977
156.7200     922
156.7400     873
156.7600     882
156.7800     918
156.8000     974
156.8200    1036
156.8400    1085
156.8600    1099
156.8800     966
156.9000     812
156.9200     850
156.9400     952
156.9600     996
156.9800    1007
157.0000     978
157.0200     931
157.0400     877
157.0600     825
157.0800     795
157.1000     768
157.1200     714
157.1400     666
157.1600     698
157.1800     751
157.2000     751
157.2200     742
157.2400     800
157.2600     871
157.2800     880
157.3000     844
157.3200     710
157.3400     571
157.3600     607
157.3800     698
157.4000     716
157.4200     706
157.4400     706
157.4600     706
157.4800     687
157.5000     665
157.5200     660
157.5400     655
157.5600     617
157.5800     580
157.6000     619
157.6200     682
157.6400     707
157.6600     721
157.6800     755
157.7000     786
157.7200     764
157.7400     719
157.7600     674
157.7800     644
157.8000     694
157.8200     758
157.8400     734
157.8600     679
157.8800     652
157.9000     640
157.9200     648
157.9400     660
157.9600     650
157.9800     636
158.0000     639
158.0200     638
158.0400     584
158.0600     529
158.0800     579
158.1000     663
158.1200     710
158.1400     725
158.1600     652
158.1800     560
158.2000     549
158.2200     577
158.2400     630
158.2600     675
158.2800     627
158.3000     561
158.3200     598
158.3400     668
158.3600     697
158.3800     699
158.4000     652
158.4200     595
158.4400     583
158.4600     587
158.4800     576
158.5000     560
158.5200     541
158.5400     519
158.5600     490
158.5800     467
158.6000     491
158.6200     535
158.6400     587
158.6600     626
158.6800     577
158.7000     510
158.7200     528
158.7400     566
158.7600     539
158.7800     489
158.8000     459
158.8200     447
158.8400     487
158.8600     534
158.8800     521
158.9000     496
158.9200     534
158.9400     592
158.9600     620
158.9800     629
159.0000     601
159.0200     565
159.0400     556
159.0600     559
159.0800     565
159.1000     569
159.1200     550
159.1400     534
159.1600     578
159.1800     638
159.2000     658
159.2200     649
159.2400     578
159.2600     490
159.2800     442
159.3000     425
159.3200     483
159.3400     556
159.3600     552
159.3800     523
159.4000     516
159.4200     516
159.4400     506
159.4600     494
159.4800     494
159.5000     492
159.5200     461
159.5400     427
159.5600     430
159.5800     451
159.6000     489
159.6200     519
159.6400     480
159.6600     431
159.6800     462
159.7000     518
159.7200     532
159.7400     523
159.7600     474
159.7800     422
159.8000     428
159.8200     459
159.8400     495
159.8600     529
159.8800     540
159.9000     537
159.9200     509
159.9400     472
159.9600     438
159.9800     407
160.0000     379
160.0200     373
160.0400     462
160.0600     579
160.0800     643
160.1000     661
160.1200     559
160.1400     435
160.1600     444
160.1800     498
160.2000     512
160.2200     503
160.2400     458
160.2600     413
160.2800     446
160.3000     504
160.3200     534
160.3400     538
160.3600     474
160.3800     408
160.4000     473
160.4200     563
160.4400     512
160.4600     426
160.4800     451
160.5000     512
160.5200     528
160.5400     515
160.5600     447
160.5800     374
160.6000     385
160.6200     426
160.6400     455
160.6600     473
160.6800     463
160.7000     450
160.7200     484
160.7400     508
160.7600     397
160.7800     272
160.8000     350
160.8200     479
160.8400     451
160.8600     378
160.8800     390
160.9000     432
160.9200     449
160.9400     450
160.9600     414
160.9800     380
161.0000     421
161.0200     473
161.0400     422
161.0600     352
161.0800     392
161.1000     454
161.1200     409
161.1400     340
161.1600     363
161.1800     419
161.2000     458
161.2200     481
161.2400     456
161.2600     420
161.2800     425
161.3000     445
161.3200     450
161.3400     448
161.3600     433
161.3800     417
161.4000     426
161.4200     440
161.4400     437
161.4600     429
161.4800     430
161.5000     436
161.5200     457
161.5400     471
161.5600     428
161.5800     372
161.6000     365
161.6200     378
161.6400     399
161.6600     418
161.6800     414
161.7000     401
161.7200     391
161.7400     391
161.7600     428
161.7800     466
161.8000     435
161.8200     384
161.8400     368
161.8600     369
161.8800     382
161.9000     401
161.9200     428
161.9400     449
161.9600     424
161.9800     385