File: XRD_Tool/XRD_Tool/bin/Debug/LDA_sample_name_56789_Psi-0_20180603-121929.txt
128.0000     276
128.0400     267
128.0800     258
128.1200     258
128.1600     241
128.2000     232
128.2400     241
128.2800     257
128.3200     246
128.3600     270
128.4000     264
128.4400     265
128.4800     265
128.5200     286
128.5600     226
128.6000     249
128.6400     287
128.6800     273
128.7200     272
128.7600     271
128.8000     268
128.8400     230
128.8800     241
128.9200     251
128.9600     261
129.0000     250
129.0400     260
129.0800     262
129.1200     272
129.1600     253
129.2000     258
129.2400     272
129.2800     237
129.3200     239
129.3600     244
129.4000     277
129.4400     263
129.4800     264
129.5200     239
129.5600     253
129.6000     244
129.6400     258
129.6800     263
129.7200     282
129.7600     262
129.8000     278
129.8400     244
129.8800     243
129.9200     255
129.9600     237
130.0000     258
130.0400     272
130.0800     229
130.1200     243
130.1600     281
130.2000     242
130.2400     256
130.2800     260
130.3200     267
130.3600     254
130.4000     262
130.4400     260
130.4800     251
130.5200     246
130.5600     266
130.6000     271
130.6400     263
130.6800     238
130.7200     264
130.7600     261
130.8000     266
130.8400     278
130.8800     269
130.9200     247
130.9600     264
131.0000     250
131.0400     274
131.0800     265
131.1200     227
131.1600     252
131.2000     260
131.2400     259
131.2800     263
131.3200     277
131.3600     238
131.4000     254
131.4400     222
131.4800     272
131.5200     257
131.5600     272
131.6000     268
131.6400     260
131.6800     237
131.7200     231
131.7600     266
131.8000     235
131.8400     280
131.8800     253
131.9200     268
131.9600     280
132.0000     253
132.0400     276
132.0800     272
132.1200     241
132.1600     250
132.2000     261
132.2400     265
132.2800     270
132.3200     281
132.3600     269
132.4000     273
132.4400     256
132.4800     280
132.5200     281
132.5600     259
132.6000     236
132.6400     241
132.6800     249
132.7200     251
132.7600     274
132.8000     280
132.8400     238
132.8800     257
132.9200     265
132.9600     271
133.0000     267
133.0400     279
133.0800     288
133.1200     292
133.1600     262
133.2000     254
133.2400     265
133.2800     269
133.3200     228
133.3600     245
133.4000     284
133.4400     286
133.4800     271
133.5200     284
133.5600     271
133.6000     264
133.6400     271
133.6800     272
133.7200     237
133.7600     266
133.8000     270
133.8400     276
133.8800     260
133.9200     272
133.9600     257
134.0000     274
134.0400     259
134.0800     281
134.1200     287
134.1600     289
134.2000     282
134.2400     303
134.2800     297
134.3200     268
134.3600     302
134.4000     285
134.4400     249
134.4800     285
134.5200     260
134.5600     262
134.6000     261
134.6400     284
134.6800     257
134.7200     268
134.7600     269
134.8000     288
134.8400     258
134.8800     304
134.9200     263
134.9600     247
135.0000     280
135.0400     266
135.0800     266
135.1200     258
135.1600     261
135.2000     262
135.2400     254
135.2800     282
135.3200     256
135.3600     279
135.4000     271
135.4400     262
135.4800     299
135.5200     262
135.5600     278
135.6000     274
135.6400     258
135.6800     248
135.7200     273
135.7600     278
135.8000     255
135.8400     260
135.8800     269
135.9200     272
135.9600     264
136.0000     244
136.0400     249
136.0800     260
136.1200     264
136.1600     243
136.2000     259
136.2400     261
136.2800     263
136.3200     262
136.3600     262
136.4000     283
136.4400     294
136.4800     282
136.5200     268
136.5600     249
136.6000     266
136.6400     258
136.6800     281
136.7200     290
136.7600     240
136.8000     261
136.8400     263
136.8800     257
136.9200     273
136.9600     256
137.0000     267
137.0400     260
137.0800     281
137.1200     281
137.1600     272
137.2000     266
137.2400     251
137.2800     262
137.3200     237
137.3600     231
137.4000     254
137.4400     272
137.4800     266
137.5200     261
137.5600     280
137.6000     279
137.6400     286
137.6800     248
137.7200     287
137.7600     286
137.8000     259
137.8400     275
137.8800     272
137.9200     267
137.9600     277
138.0000     281
138.0400     278
138.0800     242
138.1200     267
138.1600     279
138.2000     264
138.2400     290
138.2800     262
138.3200     292
138.3600     272
138.4000     242
138.4400     240
138.4800     293
138.5200     257
138.5600     273
138.6000     278
138.6400     281
138.6800     278
138.7200     274
138.7600     308
138.8000     276
138.8400     288
138.8800     275
138.9200     266
138.9600     265
139.0000     293
139.0400     296
139.0800     260
139.1200     277
139.1600     262
139.2000     282
139.2400     276
139.2800     319
139.3200     279
139.3600     280
139.4000     272
139.4400     284
139.4800     270
139.5200     269
139.5600     299
139.6000     282
139.6400     271
139.6800     304
139.7200     240
139.7600     256
139.8000     266
139.8400     267
139.8800     280
139.9200     282
139.9600     300
140.0000     260
140.0400     293
140.0800     270
140.1200     310
140.1600     271
140.2000     237
140.2400     297
140.2800     263
140.3200     275
140.3600     272
140.4000     243
140.4400     285
140.4800     254
140.5200     277
140.5600     271
140.6000     283
140.6400     261
140.6800     264
140.7200     274
140.7600     257
140.8000     264
140.8400     301
140.8800     245
140.9200     272
140.9600     263
141.0000     280
141.0400     285
141.0800     261
141.1200     257
141.1600     270
141.2000     262
141.2400     297
141.2800     282
141.3200     260
141.3600     276
141.4000     276
141.4400     259
141.4800     299
141.5200     272
141.5600     266
141.6000     256
141.6400     292
141.6800     273
141.7200     253
141.7600     264
141.8000     287
141.8400     266
141.8800     302
141.9200     244
141.9600     252
142.0000     260
142.0400     280
142.0800     264
142.1200     279
142.1600     276
142.2000     215
142.2400     255
142.2800     260
142.3200     246
142.3600     286
142.4000     253
142.4400     261
142.4800     273
142.5200     264
142.5600     264
142.6000     306
142.6400     280
142.6800     275
142.7200     261
142.7600     308
142.8000     302
142.8400     269
142.8800     309
142.9200     257
142.9600     252
143.0000     261
143.0400     286
143.0800     267
143.1200     275
143.1600     257
143.2000     290
143.2400     248
143.2800     271
143.3200     287
143.3600     268
143.4000     270
143.4400     266
143.4800     281
143.5200     273
143.5600     253
143.6000     273
143.6400     286
143.6800     267
143.7200     303
143.7600     283
143.8000     266
143.8400     246
143.8800     279
143.9200     280
143.9600     290
144.0000     287
144.0400     273
144.0800     248
144.1200     262
144.1600     254
144.2000     297
144.2400     273
144.2800     314
144.3200     246
144.3600     302
144.4000     268
144.4400     260
144.4800     331
144.5200     286
144.5600     255
144.6000     286
144.6400     283
144.6800     277
144.7200     259
144.7600     254
144.8000     296
144.8400     269
144.8800     267
144.9200     284
144.9600     276
145.0000     279
145.0400     260
145.0800     266
145.1200     281
145.1600     281
145.2000     281
145.2400     258
145.2800     280
145.3200     261
145.3600     271
145.4000     274
145.4400     268
145.4800     308
145.5200     247
145.5600     258
145.6000     251
145.6400     279
145.6800     268
145.7200     267
145.7600     235
145.8000     275
145.8400     251
145.8800     282
145.9200     258
145.9600     265
146.0000     275
146.0400     303
146.0800     285
146.1200     304
146.1600     268
146.2000     305
146.2400     267
146.2800     273
146.3200     272
146.3600     251
146.4000     235
146.4400     281
146.4800     297
146.5200     260
146.5600     276
146.6000     289
146.6400     276
146.6800     272
146.7200     279
146.7600     300
146.8000     282
146.8400     288
146.8800     293
146.9200     270
146.9600     266
147.0000     267
147.0400     235
147.0800     298
147.1200     269
147.1600     245
147.2000     238
147.2400     282
147.2800     272
147.3200     279
147.3600     304
147.4000     267
147.4400     252
147.4800     270
147.5200     260
147.5600     276
147.6000     283
147.6400     274
147.6800     276
147.7200     318
147.7600     308
147.8000     308
147.8400     296
147.8800     270
147.9200     283
147.9600     280
148.0000     280
148.0400     272
148.0800     271
148.1200     294
148.1600     282
148.2000     295
148.2400     283
148.2800     263
148.3200     236
148.3600     283
148.4000     272
148.4400     269
148.4800     283
148.5200     291
148.5600     277
148.6000     314
148.6400     270
148.6800     293
148.7200     278
148.7600     274
148.8000     274
148.8400     269
148.8800     267
148.9200     305
148.9600     262
149.0000     302
149.0400     287
149.0800     274
149.1200     279
149.1600     266
149.2000     262
149.2400     303
149.2800     279
149.3200     261
149.3600     274
149.4000     265
149.4400     283
149.4800     298
149.5200     274
149.5600     287
149.6000     264
149.6400     284
149.6800     278
149.7200     264
149.7600     275
149.8000     257
149.8400     295
149.8800     302
149.9200     282
149.9600     284
150.0000     283
150.0400     281
150.0800     284
150.1200     284
150.1600     272
150.2000     272
150.2400     283
150.2800     283
150.3200     270
150.3600     277
150.4000     280
150.4400     277
150.4800     300
150.5200     272
150.5600     276
150.6000     293
150.6400     273
150.6800     295
150.7200     319
150.7600     287
150.8000     280
150.8400     292
150.8800     272
150.9200     303
150.9600     285
151.0000     299
151.0400     292
151.0800     265
151.1200     304
151.1600     276
151.2000     295
151.2400     288
151.2800     269
151.3200     294
151.3600     297
151.4000     296
151.4400     300
151.4800     295
151.5200     263
151.5600     306
151.6000     288
151.6400     310
151.6800     293
151.7200     289
151.7600     275
151.8000     272
151.8400     326
151.8800     319
151.9200     313
151.9600     319