File: XRD_Tool/XRD_Tool/bin/Debug/LDA_sample_name_56789_Psi-0_20180603-112230.txt
137.2000     242
137.2400     252
137.2800     249
137.3200     247
137.3600     248
137.4000     268
137.4400     271
137.4800     249
137.5200     259
137.5600     280
137.6000     248
137.6400     246
137.6800     239
137.7200     232
137.7600     257
137.8000     285
137.8400     250
137.8800     261
137.9200     244
137.9600     257
138.0000     260
138.0400     282
138.0800     244
138.1200     258
138.1600     220
138.2000     270
138.2400     217
138.2800     255
138.3200     270
138.3600     255
138.4000     237
138.4400     238
138.4800     250
138.5200     277
138.5600     252
138.6000     231
138.6400     248
138.6800     224
138.7200     253
138.7600     246
138.8000     260
138.8400     242
138.8800     280
138.9200     256
138.9600     243
139.0000     238
139.0400     279
139.0800     226
139.1200     302
139.1600     257
139.2000     225
139.2400     290
139.2800     254
139.3200     282
139.3600     266
139.4000     272
139.4400     275
139.4800     279
139.5200     233
139.5600     262
139.6000     250
139.6400     272
139.6800     249
139.7200     250
139.7600     285
139.8000     281
139.8400     241
139.8800     231
139.9200     266
139.9600     236
140.0000     267
140.0400     264
140.0800     248
140.1200     276
140.1600     241
140.2000     264
140.2400     244
140.2800     283
140.3200     262
140.3600     259
140.4000     235
140.4400     256
140.4800     256
140.5200     270
140.5600     260
140.6000     264
140.6400     246
140.6800     255
140.7200     263
140.7600     280
140.8000     278
140.8400     260
140.8800     246
140.9200     273
140.9600     251
141.0000     275
141.0400     265
141.0800     262
141.1200     259
141.1600     252
141.2000     247
141.2400     261
141.2800     264
141.3200     255
141.3600     283
141.4000     253
141.4400     256
141.4800     268
141.5200     267
141.5600     282
141.6000     240
141.6400     238
141.6800     283
141.7200     253
141.7600     238
141.8000     269
141.8400     257
141.8800     268
141.9200     249
141.9600     271
142.0000     268
142.0400     269
142.0800     238
142.1200     247
142.1600     254
142.2000     251
142.2400     268
142.2800     261
142.3200     275
142.3600     287
142.4000     260
142.4400     282
142.4800     301
142.5200     332
142.5600     318
142.6000     260
142.6400     263
142.6800     276
142.7200     249
142.7600     249
142.8000     277
142.8400     258
142.8800     262
142.9200     291
142.9600     249
143.0000     255
143.0400     264
143.0800     268
143.1200     288
143.1600     270
143.2000     256
143.2400     275
143.2800     291
143.3200     247
143.3600     313
143.4000     266
143.4400     244
143.4800     294
143.5200     260
143.5600     271
143.6000     286
143.6400     266
143.6800     252
143.7200     263
143.7600     239
143.8000     289
143.8400     283
143.8800     296
143.9200     247
143.9600     268
144.0000     278
144.0400     263
144.0800     293
144.1200     289
144.1600     272
144.2000     274
144.2400     285
144.2800     277
144.3200     296
144.3600     268
144.4000     270
144.4400     283
144.4800     260
144.5200     269
144.5600     231
144.6000     271
144.6400     263
144.6800     263
144.7200     273
144.7600     274
144.8000     267
144.8400     302
144.8800     266
144.9200     274
144.9600     277
145.0000     291
145.0400     254
145.0800     265
145.1200     242
145.1600     274
145.2000     259
145.2400     275
145.2800     268
145.3200     254
145.3600     278
145.4000     276
145.4400     251
145.4800     263
145.5200     238
145.5600     265
145.6000     319
145.6400     270
145.6800     269
145.7200     268
145.7600     251
145.8000     278
145.8400     275
145.8800     294
145.9200     287
145.9600     268
146.0000     257
146.0400     304
146.0800     267
146.1200     256
146.1600     257
146.2000     284
146.2400     277
146.2800     247
146.3200     280
146.3600     251
146.4000     251
146.4400     259
146.4800     283
146.5200     270
146.5600     288
146.6000     252
146.6400     284
146.6800     263
146.7200     288
146.7600     285
146.8000     287
146.8400     294
146.8800     284
146.9200     281
146.9600     291
147.0000     263
147.0400     272
147.0800     291
147.1200     262
147.1600     254
147.2000     268
147.2400     281
147.2800     275
147.3200     289
147.3600     259
147.4000     266
147.4400     315
147.4800     324
147.5200     296
147.5600     248
147.6000     285
147.6400     294
147.6800     279
147.7200     275
147.7600     305
147.8000     275
147.8400     298
147.8800     286
147.9200     248
147.9600     292
148.0000     290
148.0400     279
148.0800     281
148.1200     286
148.1600     292
148.2000     289
148.2400     265
148.2800     263
148.3200     259
148.3600     329
148.4000     273
148.4400     285
148.4800     324
148.5200     268
148.5600     268
148.6000     274
148.6400     299
148.6800     261
148.7200     289
148.7600     315
148.8000     290
148.8400     281
148.8800     271
148.9200     280
148.9600     277
149.0000     264
149.0400     291
149.0800     301
149.1200     273
149.1600     294
149.2000     280
149.2400     298
149.2800     310
149.3200     300
149.3600     306
149.4000     296
149.4400     291
149.4800     305
149.5200     310
149.5600     299
149.6000     325
149.6400     293
149.6800     311
149.7200     287
149.7600     297
149.8000     278
149.8400     278
149.8800     271
149.9200     326
149.9600     310
150.0000     312
150.0400     336
150.0800     303
150.1200     328
150.1600     312
150.2000     303
150.2400     282
150.2800     303
150.3200     307
150.3600     309
150.4000     292
150.4400     295
150.4800     286
150.5200     312
150.5600     331
150.6000     287
150.6400     318
150.6800     313
150.7200     314
150.7600     293
150.8000     345
150.8400     344
150.8800     325
150.9200     334
150.9600     298
151.0000     304
151.0400     362
151.0800     311
151.1200     333
151.1600     369
151.2000     338
151.2400     352
151.2800     321
151.3200     315
151.3600     349
151.4000     334
151.4400     354
151.4800     349
151.5200     362
151.5600     366
151.6000     332
151.6400     364
151.6800     368
151.7200     327
151.7600     361
151.8000     392
151.8400     381
151.8800     409
151.9200     362
151.9600     337
152.0000     382
152.0400     399
152.0800     358
152.1200     393
152.1600     375
152.2000     354
152.2400     398
152.2800     437
152.3200     381
152.3600     402
152.4000     405
152.4400     419
152.4800     410
152.5200     427
152.5600     453
152.6000     461
152.6400     465
152.6800     474
152.7200     456
152.7600     487
152.8000     497
152.8400     476
152.8800     533
152.9200     521
152.9600     519
153.0000     513
153.0400     553
153.0800     511
153.1200     535
153.1600     528
153.2000     524
153.2400     561
153.2800     530
153.3200     574
153.3600     513
153.4000     629
153.4400     632
153.4800     600
153.5200     571
153.5600     654
153.6000     680
153.6400     653
153.6800     700
153.7200     690
153.7600     731
153.8000     648
153.8400     714
153.8800     694
153.9200     657
153.9600     733
154.0000     654
154.0400     731
154.0800     668
154.1200     752
154.1600     714
154.2000     772
154.2400     718
154.2800     835
154.3200     766
154.3600     738
154.4000     749
154.4400     733
154.4800     712
154.5200     791
154.5600     785
154.6000     814
154.6400     769
154.6800     744
154.7200     742
154.7600     750
154.8000     702
154.8400     740
154.8800     765
154.9200     742
154.9600     758
155.0000     757
155.0400     749
155.0800     741
155.1200     744
155.1600     711
155.2000     667
155.2400     720
155.2800     671
155.3200     715
155.3600     724
155.4000     668
155.4400     627
155.4800     673
155.5200     667
155.5600     606
155.6000     595
155.6400     621
155.6800     548
155.7200     618
155.7600     608
155.8000     607
155.8400     564
155.8800     650
155.9200     647
155.9600     555
156.0000     597
156.0400     604
156.0800     553
156.1200     561
156.1600     529
156.2000     574
156.2400     556
156.2800     539
156.3200     511
156.3600     478
156.4000     458
156.4400     502
156.4800     529
156.5200     453
156.5600     500
156.6000     455
156.6400     443
156.6800     465
156.7200     490
156.7600     472
156.8000     432
156.8400     493
156.8800     398
156.9200     442
156.9600     395
157.0000     430
157.0400     435
157.0800     414
157.1200     433
157.1600     406
157.2000     411
157.2400     410
157.2800     388
157.3200     388
157.3600     397
157.4000     383
157.4400     389
157.4800     399
157.5200     368
157.5600     363
157.6000     381
157.6400     354
157.6800     380
157.7200     375
157.7600     355
157.8000     358
157.8400     375
157.8800     383
157.9200     342
157.9600     322
158.0000     367
158.0400     367
158.0800     381
158.1200     344
158.1600     333
158.2000     355
158.2400     336
158.2800     404
158.3200     316
158.3600     360
158.4000     338
158.4400     326
158.4800     358
158.5200     338
158.5600     342
158.6000     342
158.6400     299
158.6800     332
158.7200     321
158.7600     333
158.8000     309
158.8400     333
158.8800     368
158.9200     328
158.9600     317
159.0000     297
159.0400     304
159.0800     314
159.1200     342
159.1600     312
159.2000     317
159.2400     315
159.2800     318
159.3200     304
159.3600     331
159.4000     290
159.4400     305
159.4800     306
159.5200     319
159.5600     303
159.6000     301
159.6400     266
159.6800     290
159.7200     314
159.7600     290
159.8000     275
159.8400     292
159.8800     314
159.9200     313
159.9600     277
160.0000     289
160.0400     283
160.0800     356
160.1200     300
160.1600     286
160.2000     307
160.2400     316
160.2800     306
160.3200     264
160.3600     249
160.4000     321
160.4400     304
160.4800     250
160.5200     300
160.5600     287
160.6000     278
160.6400     296
160.6800     306
160.7200     270
160.7600     288
160.8000     308
160.8400     303
160.8800     270
160.9200     304
160.9600     266
161.0000     275
161.0400     290
161.0800     337
161.1200     290
161.1600     266
161.2000     287
161.2400     266
161.2800     263
161.3200     269
161.3600     295
161.4000     258
161.4400     261
161.4800     286
161.5200     273
161.5600     291
161.6000     256
161.6400     262
161.6800     274
161.7200     251
161.7600     271
161.8000     275
161.8400     276
161.8800     293
161.9200     268
161.9600     251
162.0000     262
162.0400     255
162.0800     303
162.1200     287
162.1600     295
162.2000     254
162.2400     255
162.2800     240
162.3200     260
162.3600     264
162.4000     248
162.4400     265
162.4800     271
162.5200     298
162.5600     272
162.6000     282
162.6400     250
162.6800     259
162.7200     239
162.7600     275