File: XRD_Tool/XRD_Tool/bin/Debug/LDA_sample_name_56789_Psi-0_20180603-114137.txt
137.2000     233
137.2400     235
137.2800     232
137.3200     229
137.3600     274
137.4000     222
137.4400     255
137.4800     273
137.5200     258
137.5600     251
137.6000     264
137.6400     271
137.6800     254
137.7200     260
137.7600     235
137.8000     256
137.8400     240
137.8800     266
137.9200     252
137.9600     272
138.0000     285
138.0400     232
138.0800     250
138.1200     268
138.1600     221
138.2000     258
138.2400     286
138.2800     250
138.3200     254
138.3600     268
138.4000     242
138.4400     248
138.4800     229
138.5200     243
138.5600     279
138.6000     230
138.6400     261
138.6800     246
138.7200     267
138.7600     259
138.8000     255
138.8400     251
138.8800     253
138.9200     231
138.9600     261
139.0000     292
139.0400     271
139.0800     239
139.1200     277
139.1600     248
139.2000     254
139.2400     249
139.2800     254
139.3200     279
139.3600     275
139.4000     244
139.4400     242
139.4800     305
139.5200     232
139.5600     250
139.6000     225
139.6400     262
139.6800     261
139.7200     266
139.7600     251
139.8000     249
139.8400     268
139.8800     254
139.9200     281
139.9600     255
140.0000     262
140.0400     276
140.0800     284
140.1200     238
140.1600     254
140.2000     275
140.2400     267
140.2800     276
140.3200     249
140.3600     257
140.4000     251
140.4400     277
140.4800     280
140.5200     243
140.5600     269
140.6000     247
140.6400     264
140.6800     236
140.7200     246
140.7600     256
140.8000     264
140.8400     260
140.8800     246
140.9200     255
140.9600     280
141.0000     273
141.0400     257
141.0800     275
141.1200     266
141.1600     261
141.2000     247
141.2400     236
141.2800     266
141.3200     251
141.3600     278
141.4000     277
141.4400     237
141.4800     285
141.5200     264
141.5600     241
141.6000     248
141.6400     249
141.6800     235
141.7200     254
141.7600     245
141.8000     260
141.8400     245
141.8800     293
141.9200     304
141.9600     252
142.0000     278
142.0400     262
142.0800     285
142.1200     247
142.1600     262
142.2000     268
142.2400     265
142.2800     236
142.3200     268
142.3600     265
142.4000     278
142.4400     253
142.4800     258
142.5200     267
142.5600     270
142.6000     252
142.6400     288
142.6800     287
142.7200     263
142.7600     254
142.8000     260
142.8400     287
142.8800     285
142.9200     275
142.9600     260
143.0000     287
143.0400     256
143.0800     260
143.1200     267
143.1600     264
143.2000     233
143.2400     271
143.2800     261
143.3200     255
143.3600     268
143.4000     234
143.4400     279
143.4800     277
143.5200     270
143.5600     261
143.6000     270
143.6400     305
143.6800     255
143.7200     243
143.7600     292
143.8000     267
143.8400     256
143.8800     261
143.9200     255
143.9600     262
144.0000     273
144.0400     251
144.0800     269
144.1200     267
144.1600     278
144.2000     299
144.2400     275
144.2800     268
144.3200     272
144.3600     285
144.4000     271
144.4400     265
144.4800     296
144.5200     282
144.5600     270
144.6000     276
144.6400     271
144.6800     263
144.7200     268
144.7600     292
144.8000     262
144.8400     267
144.8800     271
144.9200     272
144.9600     287
145.0000     298
145.0400     286
145.0800     310
145.1200     231
145.1600     260
145.2000     248
145.2400     257
145.2800     261
145.3200     262
145.3600     272
145.4000     262
145.4400     280
145.4800     258
145.5200     318
145.5600     267
145.6000     277
145.6400     287
145.6800     257
145.7200     248
145.7600     260
145.8000     247
145.8400     290
145.8800     284
145.9200     256
145.9600     275
146.0000     272
146.0400     239
146.0800     280
146.1200     262
146.1600     277
146.2000     287
146.2400     277
146.2800     278
146.3200     249
146.3600     263
146.4000     264
146.4400     262
146.4800     273
146.5200     275
146.5600     255
146.6000     230
146.6400     267
146.6800     253
146.7200     280
146.7600     282
146.8000     243
146.8400     279
146.8800     260
146.9200     287
146.9600     260
147.0000     263
147.0400     268
147.0800     253
147.1200     264
147.1600     307
147.2000     280
147.2400     256
147.2800     273
147.3200     262
147.3600     243
147.4000     250
147.4400     306
147.4800     303
147.5200     290
147.5600     292
147.6000     280
147.6400     291
147.6800     291
147.7200     278
147.7600     303
147.8000     304
147.8400     308
147.8800     298
147.9200     277
147.9600     287
148.0000     316
148.0400     317
148.0800     296
148.1200     275
148.1600     286
148.2000     270
148.2400     278
148.2800     287
148.3200     248
148.3600     271
148.4000     292
148.4400     272
148.4800     288
148.5200     297
148.5600     319
148.6000     282
148.6400     296
148.6800     282
148.7200     286
148.7600     287
148.8000     303
148.8400     263
148.8800     273
148.9200     287
148.9600     263
149.0000     297
149.0400     285
149.0800     285
149.1200     283
149.1600     300
149.2000     288
149.2400     286
149.2800     294
149.3200     289
149.3600     292
149.4000     295
149.4400     313
149.4800     307
149.5200     313
149.5600     304
149.6000     293
149.6400     306
149.6800     313
149.7200     289
149.7600     284
149.8000     314
149.8400     312
149.8800     317
149.9200     311
149.9600     323
150.0000     301
150.0400     319
150.0800     289
150.1200     296
150.1600     336
150.2000     310
150.2400     315
150.2800     305
150.3200     328
150.3600     311
150.4000     317
150.4400     289
150.4800     324
150.5200     329
150.5600     334
150.6000     331
150.6400     326
150.6800     299
150.7200     307
150.7600     305
150.8000     311
150.8400     327
150.8800     296
150.9200     326
150.9600     327
151.0000     325
151.0400     304
151.0800     330
151.1200     333
151.1600     306
151.2000     377
151.2400     326
151.2800     330
151.3200     333
151.3600     306
151.4000     324
151.4400     332
151.4800     332
151.5200     336
151.5600     332
151.6000     343
151.6400     361
151.6800     356
151.7200     354
151.7600     345
151.8000     334
151.8400     356
151.8800     368
151.9200     384
151.9600     386
152.0000     382
152.0400     390
152.0800     379
152.1200     404
152.1600     420
152.2000     401
152.2400     397
152.2800     429
152.3200     394
152.3600     423
152.4000     424
152.4400     397
152.4800     406
152.5200     433
152.5600     477
152.6000     428
152.6400     452
152.6800     463
152.7200     474
152.7600     441
152.8000     464
152.8400     501
152.8800     499
152.9200     498
152.9600     512
153.0000     505
153.0400     492
153.0800     531
153.1200     544
153.1600     545
153.2000     541
153.2400     569
153.2800     554
153.3200     563
153.3600     547
153.4000     601
153.4400     592
153.4800     648
153.5200     641
153.5600     617
153.6000     613
153.6400     606
153.6800     673
153.7200     649
153.7600     633
153.8000     704
153.8400     694
153.8800     729
153.9200     734
153.9600     717
154.0000     681
154.0400     733
154.0800     695
154.1200     741
154.1600     724
154.2000     804
154.2400     761
154.2800     746
154.3200     739
154.3600     722
154.4000     742
154.4400     734
154.4800     741
154.5200     751
154.5600     781
154.6000     768
154.6400     789
154.6800     742
154.7200     748
154.7600     751
154.8000     725
154.8400     772
154.8800     739
154.9200     741
154.9600     798
155.0000     794
155.0400     759
155.0800     772
155.1200     719
155.1600     717
155.2000     747
155.2400     703
155.2800     712
155.3200     703
155.3600     704
155.4000     730
155.4400     672
155.4800     630
155.5200     658
155.5600     611
155.6000     635
155.6400     635
155.6800     604
155.7200     614
155.7600     606
155.8000     630
155.8400     603
155.8800     586
155.9200     602
155.9600     566
156.0000     595
156.0400     513
156.0800     573
156.1200     587
156.1600     549
156.2000     564
156.2400     532
156.2800     487
156.3200     516
156.3600     517
156.4000     476
156.4400     512
156.4800     470
156.5200     506
156.5600     500
156.6000     466
156.6400     483
156.6800     477
156.7200     445
156.7600     455
156.8000     428
156.8400     436
156.8800     439
156.9200     432
156.9600     460
157.0000     426
157.0400     443
157.0800     390
157.1200     426
157.1600     416
157.2000     394
157.2400     385
157.2800     389
157.3200     396
157.3600     398
157.4000     367
157.4400     414
157.4800     363
157.5200     381
157.5600     375
157.6000     398
157.6400     356
157.6800     374
157.7200     414
157.7600     383
157.8000     337
157.8400     407
157.8800     403
157.9200     395
157.9600     378
158.0000     374
158.0400     386
158.0800     348
158.1200     341
158.1600     345
158.2000     318
158.2400     355
158.2800     313
158.3200     350
158.3600     361
158.4000     299
158.4400     318
158.4800     363
158.5200     351
158.5600     338
158.6000     317
158.6400     335
158.6800     333
158.7200     359
158.7600     328
158.8000     321
158.8400     302
158.8800     325
158.9200     310
158.9600     312
159.0000     333
159.0400     297
159.0800     326
159.1200     294
159.1600     310
159.2000     326
159.2400     332
159.2800     321
159.3200     321
159.3600     300
159.4000     331
159.4400     321
159.4800     316
159.5200     285
159.5600     310
159.6000     307
159.6400     333
159.6800     282
159.7200     271
159.7600     314
159.8000     315
159.8400     275
159.8800     313
159.9200     266
159.9600     301
160.0000     282
160.0400     268
160.0800     316
160.1200     324
160.1600     303
160.2000     273
160.2400     247
160.2800     314
160.3200     288
160.3600     289
160.4000     285
160.4400     265
160.4800     259
160.5200     297
160.5600     263
160.6000     303
160.6400     272
160.6800     280
160.7200     283
160.7600     301
160.8000     268
160.8400     280
160.8800     279
160.9200     276
160.9600     296
161.0000     292
161.0400     264
161.0800     280
161.1200     271
161.1600     296
161.2000     286
161.2400     260
161.2800     287
161.3200     272
161.3600     282
161.4000     292
161.4400     267
161.4800     258
161.5200     284
161.5600     296
161.6000     293
161.6400     286
161.6800     258
161.7200     262
161.7600     269
161.8000     287
161.8400     275
161.8800     243
161.9200     265
161.9600     271
162.0000     267
162.0400     267
162.0800     248
162.1200     284
162.1600     294
162.2000     242
162.2400     223
162.2800     267
162.3200     276
162.3600     246
162.4000     271
162.4400     266
162.4800     273
162.5200     292
162.5600     251
162.6000     260
162.6400     276
162.6800     254
162.7200     250
162.7600     265