File: XRD_Tool/XRD_Tool/bin/Debug/LDA_sample_name_56789_Psi-15_20180622-205216.txt
127.2000      20
127.2400      28
127.2800      19
127.3200      -1
127.3600      22
127.4000      43
127.4400      73
127.4800      83
127.5200      49
127.5600      13
127.6000      17
127.6400      27
127.6800      49
127.7200       9
127.7600      10
127.8000      50
127.8400      29
127.8800      14
127.9200       8
127.9600      28
128.0000      36
128.0400      33
128.0800      19
128.1200      35
128.1600      39
128.2000      33
128.2400      22
128.2800      -1
128.3200      22
128.3600      29
128.4000     -18
128.4400       2
128.4800      47
128.5200      56
128.5600      21
128.6000      -2
128.6400      13
128.6800       0
128.7200      -6
128.7600      29
128.8000      23
128.8400       8
128.8800     -14
128.9200      10
128.9600       4
129.0000      28
129.0400      53
129.0800      26
129.1200      -1
129.1600     -18
129.2000      33
129.2400      70
129.2800      59
129.3200      70
129.3600      62
129.4000      69
129.4400      51
129.4800      48
129.5200      23
129.5600      39
129.6000      67
129.6400      57
129.6800      33
129.7200      11
129.7600      17
129.8000      19
129.8400     -12
129.8800     -14
129.9200      -5
129.9600      12
130.0000      67
130.0400      36
130.0800      26
130.1200       0
130.1600      -9
130.2000      38
130.2400      15
130.2800      27
130.3200      35
130.3600      41
130.4000      49
130.4400      43
130.4800      21
130.5200      15
130.5600      13
130.6000      14
130.6400      -7
130.6800     -15
130.7200      18
130.7600      54
130.8000      54
130.8400      23
130.8800      10
130.9200      14
130.9600      -2
131.0000      -6
131.0400      36
131.0800      57
131.1200      36
131.1600      16
131.2000      19
131.2400      -4
131.2800      -5
131.3200       8
131.3600      30
131.4000      22
131.4400      44
131.4800      21
131.5200      41
131.5600      64
131.6000      39
131.6400      20
131.6800       9
131.7200      43
131.7600      61
131.8000      62
131.8400      47
131.8800     -17
131.9200      24
131.9600      54
132.0000      28
132.0400      13
132.0800      20
132.1200      32
132.1600      48
132.2000      21
132.2400       0
132.2800      40
132.3200      46
132.3600      55
132.4000      80
132.4400      62
132.4800      28
132.5200      12
132.5600      10
132.6000      19
132.6400      11
132.6800      23
132.7200      48
132.7600      38
132.8000      50
132.8400      30
132.8800      40
132.9200      41
132.9600      18
133.0000      11
133.0400      29
133.0800       3
133.1200      38
133.1600      17
133.2000      17
133.2400      29
133.2800      40
133.3200      30
133.3600      48
133.4000      51
133.4400      58
133.4800      85
133.5200      56
133.5600      50
133.6000      66
133.6400      36
133.6800       2
133.7200       3
133.7600      -9
133.8000       3
133.8400      -1
133.8800      18
133.9200      50
133.9600      66
134.0000      32
134.0400      26
134.0800      44
134.1200      45
134.1600      56
134.2000      46
134.2400      53
134.2800      41
134.3200      56
134.3600      47
134.4000      30
134.4400      64
134.4800      24
134.5200      47
134.5600      46
134.6000      46
134.6400      37
134.6800      39
134.7200       0
134.7600      12
134.8000      33
134.8400      28
134.8800      20
134.9200      19
134.9600      47
135.0000      15
135.0400      21
135.0800      21
135.1200       9
135.1600       5
135.2000      16
135.2400       5
135.2800       9
135.3200      19
135.3600      48
135.4000      35
135.4400      38
135.4800      45
135.5200      45
135.5600       3
135.6000     -16
135.6400     -13
135.6800     -13
135.7200       1
135.7600       2
135.8000      61
135.8400      81
135.8800      62
135.9200      27
135.9600      25
136.0000      29
136.0400      37
136.0800      61
136.1200      35
136.1600      76
136.2000      81
136.2400      44
136.2800      25
136.3200      57
136.3600      35
136.4000      21
136.4400      46
136.4800      43
136.5200      52
136.5600       9
136.6000      -6
136.6400       0
136.6800      39
136.7200      33
136.7600       4
136.8000      34
136.8400      21
136.8800       8
136.9200      40
136.9600      38
137.0000      55
137.0400      36
137.0800       9
137.1200      37
137.1600      32
137.2000      33
137.2400      42
137.2800      41
137.3200      38
137.3600      73
137.4000      41
137.4400      25
137.4800      32
137.5200      -1
137.5600      -3
137.6000      57
137.6400      44
137.6800      43
137.7200      41
137.7600      24
137.8000      38
137.8400      41
137.8800      63
137.9200      41
137.9600      43
138.0000      37
138.0400      31
138.0800      44
138.1200      49
138.1600      44
138.2000      26
138.2400      22
138.2800      11
138.3200      23
138.3600      33
138.4000      22
138.4400       2
138.4800      -4
138.5200      14
138.5600      12
138.6000      42
138.6400      35
138.6800      43
138.7200      43
138.7600      49
138.8000      48
138.8400      52
138.8800      47
138.9200      36
138.9600      34
139.0000      48
139.0400      32
139.0800      30
139.1200      69
139.1600      58
139.2000      33
139.2400      56
139.2800      42
139.3200      32
139.3600      54
139.4000      61
139.4400      71
139.4800      36
139.5200      46
139.5600      61
139.6000      61
139.6400      35
139.6800      29
139.7200      55
139.7600      81
139.8000      77
139.8400      22
139.8800      20
139.9200      29
139.9600      35
140.0000      27
140.0400      37
140.0800      19
140.1200      27
140.1600      27
140.2000      45
140.2400      72
140.2800      54
140.3200      22
140.3600      42
140.4000      69
140.4400       1
140.4800      25
140.5200      30
140.5600      35
140.6000      34
140.6400      32
140.6800      54
140.7200      44
140.7600      25
140.8000      57
140.8400      35
140.8800      20
140.9200      15
140.9600      12
141.0000      55
141.0400      36
141.0800      36
141.1200      46
141.1600      82
141.2000      64
141.2400      41
141.2800      36
141.3200      34
141.3600      38
141.4000      26
141.4400      13
141.4800      15
141.5200      18
141.5600      28
141.6000      24
141.6400      42
141.6800      29
141.7200      63
141.7600      98
141.8000      62
141.8400       1
141.8800      14
141.9200      19
141.9600      31
142.0000      47
142.0400      60
142.0800      64
142.1200      40
142.1600      35
142.2000      18
142.2400      49
142.2800      82
142.3200      39
142.3600      45
142.4000      30
142.4400      26
142.4800      43
142.5200      20
142.5600      39
142.6000      61
142.6400      19
142.6800       0
142.7200      17
142.7600      26
142.8000      36
142.8400      41
142.8800      20
142.9200      -4
142.9600      18
143.0000      43
143.0400      30
143.0800      49
143.1200      53
143.1600       4
143.2000      18
143.2400      11
143.2800       9
143.3200       8
143.3600      28
143.4000      36
143.4400      35
143.4800      64
143.5200      51
143.5600      46
143.6000      79
143.6400      60
143.6800      17
143.7200      36
143.7600       8
143.8000      29
143.8400      44
143.8800      72
143.9200      30
143.9600      11
144.0000      48
144.0400      43
144.0800       0
144.1200      25
144.1600      53
144.2000      11
144.2400       9
144.2800      64
144.3200      68
144.3600      37
144.4000      36
144.4400      46
144.4800      25
144.5200      40
144.5600      38
144.6000      57
144.6400      61
144.6800       7
144.7200      11
144.7600      60
144.8000      36
144.8400      51
144.8800      69
144.9200      71
144.9600      67
145.0000      41
145.0400      52
145.0800      59
145.1200      37
145.1600      40
145.2000      18
145.2400       2
145.2800       6
145.3200       1
145.3600      24
145.4000      18
145.4400      58
145.4800      54
145.5200      63
145.5600      46
145.6000      48
145.6400      87
145.6800      52
145.7200       5
145.7600       9
145.8000      14
145.8400      41
145.8800      60
145.9200      10
145.9600      14
146.0000      24
146.0400      34
146.0800      51
146.1200      32
146.1600      34
146.2000      46
146.2400      39
146.2800      39
146.3200      37
146.3600      47
146.4000      10
146.4400      74
146.4800      63
146.5200      67
146.5600      78
146.6000      47
146.6400      27
146.6800       6
146.7200      26
146.7600      53
146.8000      67
146.8400      54
146.8800      68
146.9200      78
146.9600       9
147.0000      -2
147.0400      24
147.0800       4
147.1200      27
147.1600      34
147.2000      33
147.2400      69
147.2800      54
147.3200      49
147.3600      56
147.4000      30
147.4400       0
147.4800      61
147.5200      45
147.5600      54
147.6000      25
147.6400      20
147.6800      43
147.7200      19
147.7600      14
147.8000      64
147.8400      64
147.8800      71
147.9200      81
147.9600      64
148.0000      22
148.0400      22
148.0800      12
148.1200      -7
148.1600       6
148.2000      -1
148.2400       7
148.2800      19
148.3200      39
148.3600      54
148.4000      32
148.4400      39
148.4800      59
148.5200      42
148.5600      81
148.6000      61
148.6400      28
148.6800      27
148.7200      52
148.7600      74
148.8000      40
148.8400      34
148.8800      48
148.9200      71
148.9600      89
149.0000      43
149.0400      70
149.0800      57
149.1200      15
149.1600      58
149.2000      66
149.2400      95
149.2800      79
149.3200      44
149.3600      73
149.4000      45
149.4400      13
149.4800      27
149.5200      68
149.5600      33
149.6000      18
149.6400      46
149.6800      42
149.7200      35
149.7600      59
149.8000      48
149.8400      45
149.8800      60
149.9200      55
149.9600      40
150.0000      45
150.0400      75
150.0800      78
150.1200      44
150.1600      57
150.2000      79
150.2400      80
150.2800      46
150.3200      42
150.3600      58
150.4000      13
150.4400     -11
150.4800      33
150.5200      58
150.5600      67
150.6000      49
150.6400      65
150.6800      82
150.7200      80
150.7600      57
150.8000      67
150.8400      70
150.8800      41
150.9200      51
150.9600      55
151.0000      55
151.0400      52
151.0800      39
151.1200      36
151.1600      -6