File: XRD_Tool/XRD_Tool/bin/Debug/LDA_sample_name_56789_Psi-24_20180623-000344.txt
141.0000     383
141.0200     347
141.0400     331
141.0600     322
141.0800     308
141.1000     295
141.1200     298
141.1400     308
141.1600     318
141.1800     322
141.2000     295
141.2200     259
141.2400     243
141.2600     232
141.2800     206
141.3000     186
141.3200     229
141.3400     287
141.3600     292
141.3800     276
141.4000     265
141.4200     257
141.4400     259
141.4600     261
141.4800     241
141.5000     221
141.5200     239
141.5400     268
141.5600     269
141.5800     255
141.6000     219
141.6200     197
141.6400     283
141.6600     384
141.6800     339
141.7000     251
141.7200     248
141.7400     272
141.7600     264
141.7800     250
141.8000     263
141.8200     281
141.8400     269
141.8600     257
141.8800     305
141.9000     363
141.9200     356
141.9400     319
141.9600     265
141.9800     218
142.0000     238
142.0200     279
142.0400     295
142.0600     305
142.0800     338
142.1000     373
142.1200     373
142.1400     354
142.1600     309
142.1800     256
142.2000     219
142.2200     203
142.2400     256
142.2600     317
142.2800     286
142.3000     227
142.3200     215
142.3400     219
142.3600     216
142.3800     211
142.4000     208
142.4200     210
142.4400     230
142.4600     254
142.4800     258
142.5000     254
142.5200     252
142.5400     256
142.5600     290
142.5800     324
142.6000     300
142.6200     257
142.6400     242
142.6600     245
142.6800     280
142.7000     315
142.7200     285
142.7400     228
142.7600     167
142.7800     118
142.8000     134
142.8200     180
142.8400     243
142.8600     303
142.8800     316
142.9000     312
142.9200     315
142.9400     314
142.9600     280
142.9800     236
143.0000     215
143.0200     204
143.0400     198
143.0600     199
143.0800     223
143.1000     252
143.1200     256
143.1400     245
143.1600     204
143.1800     172
143.2000     242
143.2200     328
143.2400     296
143.2600     241
143.2800     312
143.3000     414
143.3200     415
143.3400     370
143.3600     305
143.3800     243
143.4000     241
143.4200     259
143.4400     259
143.4600     254
143.4800     267
143.5000     285
143.5200     293
143.5400     297
143.5600     298
143.5800     295
143.6000     277
143.6200     249
143.6400     201
143.6600     159
143.6800     192
143.7000     245
143.7200     256
143.7400     255
143.7600     274
143.7800     302
143.8000     327
143.8200     343
143.8400     320
143.8600     286
143.8800     272
143.9000     277
143.9200     337
143.9400     395
143.9600     332
143.9800     237
144.0000     227
144.0200     245
144.0400     236
144.0600     232
144.0800     308
144.1000     391
144.1200     346
144.1400     268
144.1600     280
144.1800     324
144.2000     349
144.2200     363
144.2400     357
144.2600     338
144.2800     294
144.3000     250
144.3200     256
144.3400     272
144.3600     235
144.3800     195
144.4000     247
144.4200     316
144.4400     290
144.4600     240
144.4800     265
144.5000     312
144.5200     327
144.5400     328
144.5600     319
144.5800     315
144.6000     348
144.6200     382
144.6400     351
144.6600     295
144.6800     251
144.7000     214
144.7200     197
144.7400     183
144.7600     151
144.7800     127
144.8000     188
144.8200     280
144.8400     364
144.8600     420
144.8800     359
144.9000     261
144.9200     215
144.9400     202
144.9600     257
144.9800     332
145.0000     372
145.0200     394
145.0400     391
145.0600     377
145.0800     350
145.1000     314
145.1200     259
145.1400     202
145.1600     170
145.1800     162
145.2000     219
145.2200     296
145.2400     340
145.2600     361
145.2800     335
145.3000     294
145.3200     266
145.3400     264
145.3600     362
145.3800     467
145.4000     404
145.4200     293
145.4400     275
145.4600     295
145.4800     313
145.5000     328
145.5200     328
145.5400     333
145.5600     390
145.5800     445
145.6000     383
145.6200     286
145.6400     242
145.6600     232
145.6800     281
145.7000     340
145.7200     335
145.7400     314
145.7600     333
145.7800     363
145.8000     361
145.8200     355
145.8400     388
145.8600     427
145.8800     422
145.9000     397
145.9200     357
145.9400     317
145.9600     306
145.9800     314
146.0000     365
146.0200     413
146.0400     358
146.0600     285
146.0800     330
146.1000     400
146.1200     362
146.1400     300
146.1600     340
146.1800     402
146.2000     379
146.2200     331
146.2400     333
146.2600     349
146.2800     335
146.3000     314
146.3200     320
146.3400     335
146.3600     346
146.3800     355
146.4000     354
146.4200     350
146.4400     346
146.4600     352
146.4800     408
146.5000     471
146.5200     467
146.5400     445
146.5600     458
146.5800     462
146.6000     348
146.6200     221
146.6400     271
146.6600     373
146.6800     385
146.7000     369
146.7200     396
146.7400     424
146.7600     370
146.7800     302
146.8000     321
146.8200     370
146.8400     392
146.8600     399
146.8800     381
146.9000     355
146.9200     337
146.9400     330
146.9600     353
146.9800     379
147.0000     352
147.0200     314
147.0400     326
147.0600     351
147.0800     346
147.1000     329
147.1200     320
147.1400     322
147.1600     361
147.1800     408
147.2000     420
147.2200     412
147.2400     377
147.2600     346
147.2800     387
147.3000     430
147.3200     341
147.3400     221
147.3600     211
147.3800     250
147.4000     311
147.4200     369
147.4400     370
147.4600     351
147.4800     344
147.5000     340
147.5200     324
147.5400     315
147.5600     358
147.5800     406
147.6000     377
147.6200     329
147.6400     338
147.6600     367
147.6800     386
147.7000     398
147.7200     400
147.7400     401
147.7600     415
147.7800     433
147.8000     439
147.8200     433
147.8400     387
147.8600     332
147.8800     311
147.9000     316
147.9200     387
147.9400     460
147.9600     408
147.9800     316
148.0000     273
148.0200     264
148.0400     330
148.0600     405
148.0800     380
148.1000     326
148.1200     335
148.1400     365
148.1600     374
148.1800     373
148.2000     370
148.2200     361
148.2400     325
148.2600     288
148.2800     293
148.3000     312
148.3200     316
148.3400     320
148.3600     356
148.3800     398
148.4000     413
148.4200     411
148.4400     381
148.4600     353
148.4800     398
148.5000     462
148.5200     473
148.5400     458
148.5600     421
148.5800     386
148.6000     403
148.6200     428
148.6400     386
148.6600     342
148.6800     415
148.7000     502
148.7200     424
148.7400     304
148.7600     304
148.7800     354
148.8000     419
148.8200     479
148.8400     489
148.8600     463
148.8800     360
148.9000     242
148.9200     199
148.9400     201
148.9600     275
148.9800     362
149.0000     376
149.0200     357
149.0400     328
149.0600     302
149.0800     318
149.1000     342
149.1200     327
149.1400     313
149.1600     376
149.1800     450
149.2000     424
149.2200     368
149.2400     360
149.2600     367
149.2800     346
149.3000     325
149.3200     364
149.3400     423
149.3600     469
149.3800     492
149.4000     431
149.4200     352
149.4400     348
149.4600     370
149.4800     369
149.5000     367
149.5200     408
149.5400     457
149.5600     458
149.5800     439
149.6000     417
149.6200     393
149.6400     370
149.6600     361
149.6800     414
149.7000     479
149.7200     477
149.7400     447
149.7600     404
149.7800     361
149.8000     343
149.8200     339
149.8400     358
149.8600     385
149.8800     407
149.9000     421
149.9200     407
149.9400     395
149.9600     451
149.9800     514
150.0000     474
150.0200     412
150.0400     450
150.0600     515
150.0800     517
150.1000     497
150.1200     498
150.1400     498
150.1600     447
150.1800     385
150.2000     376
150.2200     389
150.2400     407
150.2600     434
150.2800     496
150.3000     563
150.3200     585
150.3400     582
150.3600     544
150.3800     499
150.4000     486
150.4200     492
150.4400     531
150.4600     567
150.4800     520
150.5000     463
150.5200     526
150.5400     607
150.5600     543
150.5800     444
150.6000     463
150.6200     527
150.6400     578
150.6600     616
150.6800     614
150.7000     600
150.7200     609
150.7400     626
150.7600     635
150.7800     634
150.8000     600
150.8200     559
150.8400     554
150.8600     564
150.8800     574
150.9000     584
150.9200     591
150.9400     597
150.9600     605
150.9800     616
151.0000     645
151.0200     666
151.0400     614
151.0600     543
151.0800     530
151.1000     541
151.1200     554
151.1400     556
151.1600     501
151.1800     455
151.2000     568
151.2200     712
151.2400     697
151.2600     632
151.2800     632
151.3000     651
151.3200     634
151.3400     611
151.3600     633
151.3800     680
151.4000     763
151.4200     846
151.4400     854
151.4600     820
151.4800     721
151.5000     621
151.5200     639
151.5400     699
151.5600     728
151.5800     746
151.6000     775
151.6200     798
151.6400     763
151.6600     723
151.6800     775
151.7000     844
151.7200     818
151.7400     766
151.7600     779
151.7800     815
151.8000     841
151.8200     860
151.8400     866
151.8600     868
151.8800     883
151.9000     897
151.9200     879
151.9400     858
151.9600     877
151.9800     899
152.0000     851
152.0200     783
152.0400     752
152.0600     745
152.0800     783
152.1000     839
152.1200     895
152.1400     934
152.1600     889
152.1800     836
152.2000     905
152.2200    1014
152.2400    1081
152.2600    1110
152.2800    1031
152.3000     934
152.3200     962
152.3400    1029
152.3600    1044
152.3800    1035
152.4000    1011
152.4200     992
152.4400    1027
152.4600    1082
152.4800    1133
152.5000    1176
152.5200    1183
152.5400    1180
152.5600    1207
152.5800    1240
152.6000    1250
152.6200    1239
152.6400    1178
152.6600    1112
152.6800    1124
152.7000    1173
152.7200    1249
152.7400    1325
152.7600    1351
152.7800    1358
152.8000    1370
152.8200    1384
152.8400    1396
152.8600    1412
152.8800    1450
152.9000    1488
152.9200    1484
152.9400    1475
152.9600    1518
152.9800    1565
153.0000    1528
153.0200    1472
153.0400    1485
153.0600    1528
153.0800    1587
153.1000    1650
153.1200    1698
153.1400    1739
153.1600    1774
153.1800    1810
153.2000    1869
153.2200    1919
153.2400    1881
153.2600    1823
153.2800    1843
153.3000    1902
153.3200    1993
153.3400    2056
153.3600    1915
153.3800    1742
153.4000    1809
153.4200    1966
153.4400    2086
153.4600    2165
153.4800    2106
153.5000    2015
153.5200    2039
153.5400    2102
153.5600    2130
153.5800    2157
153.6000    2247
153.6200    2327
153.6400    2224
153.6600    2089
153.6800    2160
153.7000    2303
153.7200    2391
153.7400    2439
153.7600    2394
153.7800    2325
153.8000    2319
153.8200    2343
153.8400    2385
153.8600    2416
153.8800    2349
153.9000    2256
153.9200    2230
153.9400    2247
153.9600    2350
153.9800    2464
154.0000    2453
154.0200    2413
154.0400    2475
154.0600    2539
154.0800    2411
154.1000    2253
154.1200    2323
154.1400    2461
154.1600    2479
154.1800    2464
154.2000    2521
154.2200    2600
154.2400    2642
154.2600    2664
154.2800    2658
154.3000    2629
154.3200    2548
154.3400    2465
154.3600    2477
154.3800    2540
154.4000    2667
154.4200    2795
154.4400    2808
154.4600    2761
154.4800    2647
154.5000    2518
154.5200    2442
154.5400    2400
154.5600    2417
154.5800    2453
154.6000    2470
154.6200    2484
154.6400    2518
154.6600    2561
154.6800    2604
154.7000    2628
154.7200    2554
154.7400    2449
154.7600    2391
154.7800    2354
154.8000    2335
154.8200    2329
154.8400    2353
154.8600    2371
154.8800    2301
154.9000    2221
154.9200    2274
154.9400    2349
154.9600    2269
154.9800    2153
155.0000    2167
155.0200    2236
155.0400    2320
155.0600    2374
155.0800    2243
155.1000    2078
155.1200    2105
155.1400    2190
155.1600    2185
155.1800    2141
155.2000    2087
155.2200    2044
155.2400    2078
155.2600    2115
155.2800    2017
155.3000    1894
155.3200    1921
155.3400    1987
155.3600    1955
155.3800    1904
155.4000    1963
155.4200    2045
155.4400    2029
155.4600    1969
155.4800    1889
155.5000    1818
155.5200    1835
155.5400    1873
155.5600    1841
155.5800    1792
155.6000    1796
155.6200    1823
155.6400    1854
155.6600    1867
155.6800    1785
155.7000    1696
155.7200    1763
155.7400    1860
155.7600    1792
155.7800    1689
155.8000    1736
155.8200    1815
155.8400    1751
155.8600    1653
155.8800    1678
155.9000    1720
155.9200    1597
155.9400    1435
155.9600    1405
155.9800    1436
156.0000    1512
156.0200    1584
156.0400    1548
156.0600    1475
156.0800    1437
156.1000    1416
156.1200    1411
156.1400    1418
156.1600    1449
156.1800    1473
156.2000    1420
156.2200    1351
156.2400    1355
156.2600    1370
156.2800    1285
156.3000    1178
156.3200    1156
156.3400    1177
156.3600    1245
156.3800    1306
156.4000    1240
156.4200    1146
156.4400    1159
156.4600    1201
156.4800    1173
156.5000    1122
156.5200    1101
156.5400    1098
156.5600    1128
156.5800    1161
156.6000    1141
156.6200    1097
156.6400    1041
156.6600     995
156.6800    1021
156.7000    1059
156.7200    1019
156.7400     956
156.7600     941
156.7800     935
156.8000     877
156.8200     816
156.8400     837
156.8600     880
156.8800     871
156.9000     853
156.9200     890
156.9400     930
156.9600     868
156.9800     786
157.0000     803
157.0200     853
157.0400     873
157.0600     882
157.0800     896
157.1000     909
157.1200     910
157.1400     907
157.1600     906
157.1800     899
157.2000     858
157.2200     803
157.2400     738
157.2600     685
157.2800     709
157.3000     754
157.3200     754
157.3400     742
157.3600     762
157.3800     790
157.4000     801
157.4200     798
157.4400     757
157.4600     716
157.4800     753
157.5000     803
157.5200     761
157.5400     690
157.5600     653
157.5800     631
157.6000     624
157.6200     618
157.6400     590
157.6600     557
157.6800     536
157.7000     526
157.7200     549
157.7400     579
157.7600     576
157.7800     576
157.8000     657
157.8200     742
157.8400     679
157.8600     576
157.8800     571
157.9000     600
157.9200     603
157.9400     593
157.9600     576
157.9800     556
158.0000     536
158.0200     521
158.0400     529
158.0600     544
158.0800     539
158.1000     536
158.1200     576
158.1400     623
158.1600     615
158.1800     589
158.2000     580
158.2200     574
158.2400     546
158.2600     515
158.2800     511
158.3000     529
158.3200     610
158.3400     692
158.3600     651
158.3800     569
158.4000     530
158.4200     514
158.4400     527
158.4600     547
158.4800     547
158.5000     535
158.5200     508
158.5400     483
158.5600     506
158.5800     543
158.6000     554
158.6200     550
158.6400     526
158.6600     495
158.6800     472
158.7000     459
158.7200     481
158.7400     515
158.7600     536
158.7800     552
158.8000     568
158.8200     578
158.8400     563
158.8600     529
158.8800     458
158.9000     377
158.9200     318
158.9400     289
158.9600     363
158.9800     461
159.0000     469
159.0200     445
159.0400     443
159.0600     451
159.0800     471
159.1000     486
159.1200     457
159.1400     427
159.1600     476
159.1800     546
159.2000     566
159.2200     560
159.2400     529
159.2600     489
159.2800     457
159.3000     438
159.3200     462
159.3400     496
159.3600     485
159.3800     469
159.4000     510
159.4200     567
159.4400     592
159.4600     593
159.4800     537
159.5000     459
159.5200     381
159.5400     318
159.5600     327
159.5800     362
159.6000     382
159.6200     403
159.6400     462
159.6600     512
159.6800     442
159.7000     338
159.7200     304
159.7400     308
159.7600     359
159.7800     421
159.8000     445
159.8200     449
159.8400     434
159.8600     421
159.8800     448
159.9000     475
159.9200     419
159.9400     348
159.9600     372
159.9800     425
160.0000     433
160.0200     424
160.0400     423
160.0600     421
160.0800     398
160.1000     367
160.1200     344
160.1400     334
160.1600     372
160.1800     422
160.2000     427
160.2200     421
160.2400     442
160.2600     466
160.2800     450
160.3000     422
160.3200     417
160.3400     418
160.3600     401
160.3800     384
160.4000     403
160.4200     430
160.4400     421
160.4600     398
160.4800     380
160.5000     372
160.5200     407
160.5400     448
160.5600     431
160.5800     399
160.6000     408
160.6200     428
160.6400     418
160.6600     400
160.6800     399
160.7000     409
160.7200     439
160.7400     462
160.7600     408
160.7800     339
160.8000     342
160.8200     376
160.8400     421
160.8600     459
160.8800     436
160.9000     380
160.9200     285
160.9400     199
160.9600     232
160.9800     301
161.0000     320
161.0200     328
161.0400     388
161.0600     451
161.0800     432
161.1000     387
161.1200     379
161.1400     385
161.1600     391
161.1800     404
161.2000     454
161.2200     496
161.2400     429
161.2600     344
161.2800     383
161.3000     451
161.3200     424
161.3400     366
161.3600     346
161.3800     347
161.4000     371
161.4200     408
161.4400     459
161.4600     498
161.4800     453
161.5000     395
161.5200     432
161.5400     493
161.5600     477
161.5800     432
161.6000     389
161.6200     354
161.6400     352
161.6600     371
161.6800     427
161.7000     479
161.7200     444
161.7400     374
161.7600     301
161.7800     254
161.8000     344
161.8200     463
161.8400     460
161.8600     415
161.8800     407
161.9000     397
161.9200     310
161.9400     225
161.9600     304
161.9800     422
162.0000     413
162.0200     365
162.0400     375
162.0600     398
162.0800     363
162.1000     317
162.1200     331
162.1400     366
162.1600     386
162.1800     395
162.2000     382
162.2200     367
162.2400     384
162.2600     408
162.2800     400
162.3000     385
162.3200     392
162.3400     403
162.3600     392
162.3800     376
162.4000     380
162.4200     384
162.4400     350
162.4600     312
162.4800     337
162.5000     384
162.5200     415
162.5400     429
162.5600     393
162.5800     344
162.6000     331
162.6200     324
162.6400     267
162.6600     208
162.6800     232
162.7000     282
162.7200     292
162.7400     286
162.7600     275
162.7800     270
162.8000     302
162.8200     341
162.8400     345
162.8600     329
162.8800     283
162.9000     243
162.9200     295
162.9400     366
162.9600     352
162.9800     312
163.0000     313
163.0200     335
163.0400     374
163.0600     413
163.0800     417
163.1000     404
163.1200     374
163.1400     339
163.1600     311
163.1800     301
163.2000     373
163.2200     451
163.2400     399
163.2600     308
163.2800     283
163.3000     291
163.3200     326
163.3400     358
163.3600     322
163.3800     269
163.4000     276
163.4200     298
163.4400     282
163.4600     261
163.4800     298
163.5000     352
163.5200     373
163.5400     383
163.5600     403
163.5800     418
163.6000     391
163.6200     339
163.6400     244
163.6600     157
163.6800     200
163.7000     277
163.7200     269
163.7400     234
163.7600     236
163.7800     254
163.8000     283
163.8200     318
163.8400     353
163.8600     372
163.8800     303
163.9000     219
163.9200     240
163.9400     293
163.9600     299
163.9800     290
164.0000     298
164.0200     311
164.0400     317
164.0600     326
164.0800     362
164.1000     389
164.1200     323
164.1400     240
164.1600     262
164.1800     320
164.2000     351
164.2200     364
164.2400     342
164.2600     305
164.2800     265
164.3000     234
164.3200     260
164.3400     302
164.3600     317
164.3800     315
164.4000     285
164.4200     247
164.4400     231
164.4600     220
164.4800     195
164.5000     178
164.5200     225
164.5400     279
164.5600     246
164.5800     196
164.6000     236
164.6200     295
164.6400     269
164.6600     224
164.6800     256
164.7000     302
164.7200     271
164.7400     216
164.7600     193
164.7800     189
164.8000     213
164.8200     248
164.8400     276
164.8600     303
164.8800     330
164.9000     348
164.9200     316
164.9400     269
164.9600     244
164.9800     233