File: XRD_Tool/XRD_Tool/bin/Debug/LDA_sample_name_56789_Psi-0_20180622-210504.txt
127.2000      22
127.2200      19
127.2400      20
127.2600      21
127.2800      22
127.3000      19
127.3200       4
127.3400     -10
127.3600      -1
127.3800      12
127.4000      11
127.4200       5
127.4400      11
127.4600      18
127.4800      13
127.5000       6
127.5200      12
127.5400      23
127.5600      26
127.5800      27
127.6000      31
127.6200      34
127.6400      22
127.6600       9
127.6800      21
127.7000      39
127.7200      35
127.7400      24
127.7600      18
127.7800      16
127.8000      19
127.8200      23
127.8400      17
127.8600       9
127.8800       8
127.9000      11
127.9200      20
127.9400      29
127.9600      20
127.9800       8
128.0000      18
128.0200      32
128.0400      31
128.0600      23
128.0800      15
128.1000      10
128.1200      20
128.1400      32
128.1600      27
128.1800      20
128.2000      37
128.2200      57
128.2400      50
128.2600      34
128.2800      30
128.3000      29
128.3200      21
128.3400      12
128.3600       5
128.3800       1
128.4000      12
128.4200      24
128.4400      19
128.4600      12
128.4800      25
128.5000      43
128.5200      38
128.5400      26
128.5600      25
128.5800      28
128.6000      21
128.6200      14
128.6400      22
128.6600      34
128.6800      34
128.7000      32
128.7200      37
128.7400      41
128.7600      25
128.7800       6
128.8000      10
128.8200      22
128.8400      21
128.8600      16
128.8800      21
128.9000      27
128.9200      26
128.9400      23
128.9600      24
128.9800      23
129.0000      10
129.0200      -3
129.0400       4
129.0600      16
129.0800       8
129.1000      -3
129.1200       2
129.1400      15
129.1600      20
129.1800      23
129.2000      34
129.2200      44
129.2400      36
129.2600      20
129.2800       2
129.3000     -10
129.3200       1
129.3400      19
129.3600      19
129.3800      12
129.4000      13
129.4200      19
129.4400      32
129.4600      44
129.4800      38
129.5000      25
129.5200      18
129.5400      16
129.5600      23
129.5800      32
129.6000      41
129.6200      47
129.6400      45
129.6600      38
129.6800      29
129.7000      19
129.7200       7
129.7400      -1
129.7600       1
129.7800       8
129.8000      12
129.8200      13
129.8400       9
129.8600       5
129.8800      12
129.9000      23
129.9200      29
129.9400      32
129.9600      30
129.9800      26
130.0000      17
130.0200       9
130.0400      11
130.0600      18
130.0800      27
130.1000      35
130.1200      38
130.1400      38
130.1600      36
130.1800      35
130.2000      36
130.2200      36
130.2400      31
130.2600      22
130.2800       8
130.3000      -1
130.3200      20
130.3400      47
130.3600      42
130.3800      28
130.4000      32
130.4200      41
130.4400      34
130.4600      24
130.4800      34
130.5000      49
130.5200      54
130.5400      53
130.5600      50
130.5800      44
130.6000      27
130.6200       9
130.6400      12
130.6600      23
130.6800      28
130.7000      30
130.7200      37
130.7400      40
130.7600      21
130.7800       0
130.8000      11
130.8200      29
130.8400      17
130.8600       0
130.8800      11
130.9000      31
130.9200      29
130.9400      20
130.9600      18
130.9800      20
131.0000      32
131.0200      46
131.0400      50
131.0600      48
131.0800      39
131.1000      28
131.1200      17
131.1400       9
131.1600       9
131.1800      13
131.2000      16
131.2200      18
131.2400      21
131.2600      25
131.2800      28
131.3000      29
131.3200      30
131.3400      29
131.3600      25
131.3800      18
131.4000      11
131.4200       4
131.4400       4
131.4600       8
131.4800      25
131.5000      41
131.5200      29
131.5400       9
131.5600      11
131.5800      20
131.6000      24
131.6200      25
131.6400      21
131.6600      15
131.6800      14
131.7000      14
131.7200      12
131.7400      13
131.7600      26
131.7800      39
131.8000      32
131.8200      17
131.8400      10
131.8600       7
131.8800       6
131.9000       6
131.9200       4
131.9400       4
131.9600      14
131.9800      27
132.0000      37
132.0200      43
132.0400      37
132.0600      29
132.0800      29
132.1000      31
132.1200      18
132.1400       5
132.1600      14
132.1800      29
132.2000      29
132.2200      25
132.2400      31
132.2600      38
132.2800      30
132.3000      18
132.3200      17
132.3400      22
132.3600      27
132.3800      32
132.4000      30
132.4200      26
132.4400      22
132.4600      20
132.4800      28
132.5000      39
132.5200      40
132.5400      37
132.5600      29
132.5800      20
132.6000      18
132.6200      16
132.6400       6
132.6600      -2
132.6800      14
132.7000      37
132.7200      34
132.7400      22
132.7600      23
132.7800      29
132.8000      33
132.8200      39
132.8400      50
132.8600      60
132.8800      47
132.9000      27
132.9200      18
132.9400      15
132.9600      12
132.9800      10
133.0000      10
133.0200      10
133.0400      10
133.0600      11
133.0800      15
133.1000      21
133.1200      29
133.1400      36
133.1600      38
133.1800      38
133.2000      36
133.2200      33
133.2400      23
133.2600      13
133.2800      13
133.3000      17
133.3200      21
133.3400      25
133.3600      24
133.3800      21
133.4000      15
133.4200       9
133.4400      15
133.4600      24
133.4800      31
133.5000      35
133.5200      26
133.5400      16
133.5600      27
133.5800      44
133.6000      41
133.6200      32
133.6400      30
133.6600      30
133.6800      30
133.7000      29
133.7200      25
133.7400      18
133.7600       6
133.7800      -3
133.8000       7
133.8200      24
133.8400      21
133.8600      14
133.8800      19
133.9000      27
133.9200      25
133.9400      19
133.9600      16
133.9800      15
134.0000      19
134.0200      23
134.0400      19
134.0600      14
134.0800      22
134.1000      32
134.1200      24
134.1400       9
134.1600       0
134.1800      -3
134.2000      16
134.2200      41
134.2400      38
134.2600      24
134.2800      11
134.3000       3
134.3200      15
134.3400      32
134.3600      31
134.3800      25
134.4000      31
134.4200      38
134.4400      31
134.4600      21
134.4800      21
134.5000      26
134.5200      35
134.5400      43
134.5600      41
134.5800      35
134.6000      30
134.6200      26
134.6400      22
134.6600      21
134.6800      30
134.7000      39
134.7200      25
134.7400       7
134.7600      22
134.7800      46
134.8000      45
134.8200      39
134.8400      53
134.8600      70
134.8800      59
134.9000      38
134.9200      23
134.9400      13
134.9600      13
134.9800      19
135.0000      32
135.0200      44
135.0400      39
135.0600      27
135.0800      14
135.1000       4
135.1200      15
135.1400      31
135.1600      26
135.1800      14
135.2000      12
135.2200      15
135.2400      23
135.2600      30
135.2800      27
135.3000      20
135.3200      18
135.3400      17
135.3600      13
135.3800       8
135.4000      11
135.4200      17
135.4400      21
135.4600      25
135.4800      26
135.5000      24
135.5200      14
135.5400       3
135.5600      10
135.5800      22
135.6000      26
135.6200      27
135.6400      31
135.6600      37
135.6800      43
135.7000      47
135.7200      41
135.7400      32
135.7600      28
135.7800      26
135.8000      21
135.8200      14
135.8400       7
135.8600       3
135.8800      17
135.9000      36
135.9200      38
135.9400      35
135.9600      32
135.9800      29
136.0000      23
136.0200      18
136.0400      28
136.0600      40
136.0800      34
136.1000      20
136.1200       9
136.1400       3
136.1600      14
136.1800      28
136.2000      23
136.2200      13
136.2400      12
136.2600      16
136.2800      30
136.3000      43
136.3200      36
136.3400      24
136.3600      30
136.3800      43
136.4000      48
136.4200      47
136.4400      34
136.4600      20
136.4800      23
136.5000      30
136.5200      27
136.5400      20
136.5600      20
136.5800      22
136.6000      27
136.6200      32
136.6400      32
136.6600      34
136.6800      53
136.7000      70
136.7200      47
136.7400      14
136.7600      14
136.7800      27
136.8000      35
136.8200      43
136.8400      58
136.8600      71
136.8800      59
136.9000      39
136.9200      30
136.9400      27
136.9600      28
136.9800      29
137.0000      30
137.0200      28
137.0400      19
137.0600      10
137.0800      11
137.1000      17
137.1200      23
137.1400      28
137.1600      25
137.1800      20
137.2000      25
137.2200      32
137.2400      34
137.2600      35
137.2800      39
137.3000      42
137.3200      27
137.3400       9
137.3600      16
137.3800      29
137.4000      30
137.4200      26
137.4400      17
137.4600      11
137.4800      25
137.5000      44
137.5200      45
137.5400      38
137.5600      26
137.5800      15
137.6000      20
137.6200      31
137.6400      37
137.6600      40
137.6800      38
137.7000      34
137.7200      27
137.7400      22
137.7600      30
137.7800      41
137.8000      34
137.8200      24
137.8400      34
137.8600      47
137.8800      38
137.9000      22
137.9200      14
137.9400      14
137.9600      33
137.9800      52
138.0000      39
138.0200      18
138.0400      22
138.0600      33
138.0800      27
138.1000      19
138.1200      31
138.1400      47
138.1600      40
138.1800      28
138.2000      34
138.2200      44
138.2400      31
138.2600      13
138.2800      18
138.3000      30
138.3200      29
138.3400      23
138.3600      20
138.3800      19
138.4000      23
138.4200      28
138.4400      25
138.4600      20
138.4800      20
138.5000      22
138.5200      24
138.5400      26
138.5600      31
138.5800      37
138.6000      40
138.6200      41
138.6400      37
138.6600      30
138.6800      18
138.7000       6
138.7200       7
138.7400      15
138.7600      31
138.7800      48
138.8000      45
138.8200      36
138.8400      32
138.8600      31
138.8800      32
138.9000      33
138.9200      29
138.9400      25
138.9600      32
138.9800      42
139.0000      39
139.0200      32
139.0400      30
139.0600      31
139.0800      37
139.1000      43
139.1200      39
139.1400      32
139.1600      33
139.1800      34
139.2000      20
139.2200       4
139.2400       8
139.2600      20
139.2800      29
139.3000      35
139.3200      29
139.3400      21
139.3600      21
139.3800      25
139.4000      29
139.4200      32
139.4400      27
139.4600      20
139.4800      21
139.5000      24
139.5200      22
139.5400      18
139.5600      14
139.5800      12
139.6000      19
139.6200      30
139.6400      46
139.6600      58
139.6800      41
139.7000      18
139.7200      17
139.7400      24
139.7600      28
139.7800      29
139.8000      30
139.8200      30
139.8400      33
139.8600      38
139.8800      48
139.9000      56
139.9200      44
139.9400      26
139.9600      17
139.9800      12
140.0000      13
140.0200      19
140.0400      32
140.0600      42
140.0800      25
140.1000       2
140.1200       4
140.1400      14
140.1600      14
140.1800      12
140.2000      20
140.2200      30
140.2400      25
140.2600      16
140.2800      10
140.3000       7
140.3200       9
140.3400      12
140.3600       7
140.3800       2
140.4000      14
140.4200      30
140.4400      37
140.4600      40
140.4800      37
140.5000      30
140.5200      23
140.5400      16
140.5600      12
140.5800      11
140.6000      13
140.6200      19
140.6400      32
140.6600      44
140.6800      34
140.7000      19
140.7200      19
140.7400      24
140.7600      24
140.7800      23
140.8000      27
140.8200      33
140.8400      39
140.8600      43
140.8800      37
140.9000      28
140.9200      26
140.9400      26
140.9600      29
140.9800      32
141.0000      27
141.0200      20
141.0400      20
141.0600      21
141.0800      17
141.1000      13
141.1200      19
141.1400      27
141.1600      26
141.1800      26
141.2000      43
141.2200      62
141.2400      54
141.2600      37
141.2800      22
141.3000      10
141.3200       9
141.3400      13
141.3600      16
141.3800      18
141.4000      21
141.4200      25
141.4400      26
141.4600      25
141.4800      19
141.5000      14
141.5200      24
141.5400      38
141.5600      42
141.5800      42
141.6000      40
141.6200      38
141.6400      33
141.6600      27
141.6800      21
141.7000      17
141.7200      28
141.7400      40
141.7600      35
141.7800      25
141.8000      25
141.8200      29
141.8400      32
141.8600      32
141.8800      22
141.9000      11
141.9200      20
141.9400      33
141.9600      29
141.9800      21
142.0000      25
142.0200      31
142.0400      30
142.0600      26
142.0800      22
142.1000      18
142.1200      13
142.1400       9
142.1600      16
142.1800      27
142.2000      30
142.2200      29
142.2400      21
142.2600      16
142.2800      33
142.3000      55
142.3200      57
142.3400      48
142.3600      27
142.3800       7
142.4000      14
142.4200      29
142.4400      34
142.4600      36
142.4800      50
142.5000      63
142.5200      51
142.5400      32
142.5600      29
142.5800      32
142.6000      30
142.6200      27
142.6400      28
142.6600      31
142.6800      44
142.7000      57
142.7200      55
142.7400      46
142.7600      35
142.7800      24
142.8000      17
142.8200      14
142.8400      27
142.8600      43
142.8800      34
142.9000      18
142.9200      10
142.9400       8
142.9600      13
142.9800      22
143.0000      38
143.0200      53
143.0400      53
143.0600      48
143.0800      48
143.1000      48
143.1200      43
143.1400      36
143.1600      32
143.1800      30
143.2000      26
143.2200      24
143.2400      29
143.2600      35
143.2800      29
143.3000      20
143.3200      18
143.3400      17
143.3600      14
143.3800      12
143.4000      17
143.4200      24
143.4400      24
143.4600      21
143.4800      15
143.5000      10
143.5200      23
143.5400      40
143.5600      42
143.5800      39
143.6000      40
143.6200      40
143.6400      33
143.6600      24
143.6800      20
143.7000      19
143.7200      21
143.7400      23
143.7600      15
143.7800       5
143.8000       0
143.8200       0
143.8400       5
143.8600      14
143.8800      26
143.9000      37
143.9200      31
143.9400      21
143.9600      16
143.9800      13
144.0000       3
144.0200      -4
144.0400       2
144.0600      16
144.0800      28
144.1000      36
144.1200      24
144.1400      10
144.1600      21
144.1800      38
144.2000      32
144.2200      18
144.2400      12
144.2600      11
144.2800      13
144.3000      16
144.3200      14
144.3400      12
144.3600      15
144.3800      21
144.4000      25
144.4200      29
144.4400      30
144.4600      29
144.4800      21
144.5000      13
144.5200      12
144.5400      15
144.5600      28
144.5800      40
144.6000      30
144.6200      14
144.6400       6
144.6600       4
144.6800       7
144.7000      15
144.7200      31
144.7400      46
144.7600      35
144.7800      16
144.8000      12
144.8200      13
144.8400       9
144.8600       5
144.8800      11
144.9000      18
144.9200      10
144.9400       1
144.9600      17
144.9800      39
145.0000      41
145.0200      34
145.0400      25
145.0600      18
145.0800      23
145.1000      31
145.1200      29
145.1400      24
145.1600      29
145.1800      37
145.2000      47
145.2200      51
145.2400      26
145.2600      -2
145.2800       2
145.3000      16
145.3200      13
145.3400       5
145.3600       5
145.3800      10
145.4000      17
145.4200      23
145.4400      17
145.4600      10
145.4800      15
145.5000      23
145.5200      26
145.5400      24
145.5600      15
145.5800       7
145.6000      16
145.6200      30
145.6400      34
145.6600      33
145.6800      25
145.7000      16
145.7200      14
145.7400      14
145.7600      14
145.7800      16
145.8000      26
145.8200      38
145.8400      37
145.8600      33
145.8800      42
145.9000      52
145.9200      39
145.9400      19
145.9600      12
145.9800      11
146.0000      15
146.0200      21
146.0400      24
146.0600      25
146.0800      22
146.1000      18
146.1200       9
146.1400       2
146.1600       7
146.1800      17
146.2000      32
146.2200      44
146.2400      39
146.2600      30
146.2800      35
146.3000      43
146.3200      44
146.3400      43
146.3600      45
146.3800      46
146.4000      32
146.4200      16
146.4400      20
146.4600      31
146.4800      34
146.5000      32
146.5200      23
146.5400      14
146.5600      17
146.5800      24
146.6000      29
146.6200      33
146.6400      32
146.6600      30
146.6800      28
146.7000      25
146.7200      14
146.7400       2
146.7600       5
146.7800      13
146.8000      24
146.8200      34
146.8400      34
146.8600      32
146.8800      35
146.9000      38
146.9200      26
146.9400      12
146.9600      16
146.9800      26
147.0000      26
147.0200      24
147.0400      29
147.0600      35
147.0800      31
147.1000      24
147.1200      24
147.1400      26
147.1600      28
147.1800      29
147.2000      26
147.2200      25
147.2400      34
147.2600      44
147.2800      36
147.3000      24
147.3200      30
147.3400      41
147.3600      37
147.3800      26
147.4000      12
147.4200       2
147.4400      20
147.4600      45
147.4800      47
147.5000      39
147.5200      33
147.5400      26
147.5600      17
147.5800      10
147.6000      16
147.6200      26
147.6400      21
147.6600      13
147.6800      17
147.7000      23
147.7200      21
147.7400      16
147.7600      21
147.7800      26
147.8000      18
147.8200       6
147.8400       4
147.8600       5
147.8800       6
147.9000       7
147.9200      15
147.9400      25
147.9600      38
147.9800      49
148.0000      47
148.0200      39
148.0400      31
148.0600      24
148.0800      22
148.1000      21
148.1200      18
148.1400      15
148.1600      14
148.1800      13
148.2000       9
148.2200       5
148.2400      16
148.2600      29
148.2800      29
148.3000      24
148.3200      25
148.3400      29
148.3600      33
148.3800      36
148.4000      29
148.4200      24
148.4400      42
148.4600      65
148.4800      63
148.5000      51
148.5200      38
148.5400      26
148.5600      27
148.5800      32
148.6000      32
148.6200      30
148.6400      25
148.6600      22
148.6800      35
148.7000      51
148.7200      42
148.7400      26
148.7600      20
148.7800      19
148.8000      23
148.8200      29
148.8400      37
148.8600      43
148.8800      37
148.9000      30
148.9200      36
148.9400      45
148.9600      38
148.9800      25
149.0000      22
149.0200      21
149.0400      18
149.0600      15
149.0800      14
149.1000      14
149.1200      14
149.1400      14
149.1600      16
149.1800      19
149.2000      30
149.2200      40
149.2400      28
149.2600      13
149.2800      23
149.3000      41
149.3200      49
149.3400      51
149.3600      42
149.3800      30
149.4000      28
149.4200      30
149.4400      37
149.4600      44
149.4800      48
149.5000      48
149.5200      43
149.5400      35
149.5600      27
149.5800      21
149.6000      23
149.6200      28
149.6400      28
149.6600      27
149.6800      33
149.7000      40
149.7200      42
149.7400      40
149.7600      31
149.7800      21
149.8000      16
149.8200      14
149.8400      14
149.8600      16
149.8800      28
149.9000      43
149.9200      55
149.9400      60
149.9600      43
149.9800      21
150.0000      17
150.0200      20
150.0400      17
150.0600      15
150.0800      34
150.1000      57
150.1200      50
150.1400      35
150.1600      37
150.1800      42
150.2000      32
150.2200      20
150.2400      28
150.2600      41
150.2800      42
150.3000      39
150.3200      38
150.3400      37
150.3600      34
150.3800      30
150.4000      26
150.4200      23
150.4400      24
150.4600      26
150.4800      33
150.5000      40
150.5200      40
150.5400      38
150.5600      33
150.5800      27
150.6000      22
150.6200      21
150.6400      35
150.6600      52
150.6800      53
150.7000      46
150.7200      35
150.7400      26
150.7600      27
150.7800      33
150.8000      41
150.8200      48
150.8400      48
150.8600      45
150.8800      37
150.9000      29
150.9200      33
150.9400      39
150.9600      37
150.9800      32
151.0000      32
151.0200      36
151.0400      53
151.0600      70
151.0800      64
151.1000      50
151.1200      46
151.1400      44
151.1600      35
151.1800      24