File: XRD_Tool/XRD_Tool/bin/Debug/LDA_sample_name_56789_Psi-24_20180623-122757.txt
138.0000     184
138.0200     204
138.0400     164
138.0600     111
138.0800     116
138.1000     139
138.1200     137
138.1400     132
138.1600     159
138.1800     194
138.2000     207
138.2200     201
138.2400     145
138.2600      85
138.2800     102
138.3000     149
138.3200     189
138.3400     215
138.3600     179
138.3800     132
138.4000     147
138.4200     179
138.4400     169
138.4600     150
138.4800     166
138.5000     193
138.5200     207
138.5400     209
138.5600     184
138.5800     154
138.6000     154
138.6200     174
138.6400     231
138.6600     284
138.6800     245
138.7000     178
138.7200     151
138.7400     143
138.7600     145
138.7800     149
138.8000     145
138.8200     134
138.8400     110
138.8600      90
138.8800     120
138.9000     162
138.9200     165
138.9400     159
138.9600     183
138.9800     210
139.0000     189
139.0200     154
139.0400     147
139.0600     149
139.0800     138
139.1000     122
139.1200     104
139.1400      92
139.1600     108
139.1800     134
139.2000     150
139.2200     157
139.2400     134
139.2600     107
139.2800     113
139.3000     137
139.3200     178
139.3400     215
139.3600     200
139.3800     174
139.4000     197
139.4200     232
139.4400     233
139.4600     214
139.4800     159
139.5000     106
139.5200     141
139.5400     198
139.5600     190
139.5800     157
139.6000     129
139.6200     111
139.6400     133
139.6600     162
139.6800     146
139.7000     118
139.7200     120
139.7400     137
139.7600     171
139.7800     202
139.8000     191
139.8200     167
139.8400     162
139.8600     162
139.8800     155
139.9000     151
139.9200     174
139.9400     201
139.9600     194
139.9800     177
140.0000     172
140.0200     176
140.0400     202
140.0600     241
140.0800     310
140.1000     372
140.1200     344
140.1400     275
140.1600     184
140.1800     109
140.2000     156
140.2200     239
140.2400     259
140.2600     253
140.2800     250
140.3000     242
140.3200     202
140.3400     161
140.3600     172
140.3800     194
140.4000     164
140.4200     123
140.4400     124
140.4600     146
140.4800     193
140.5000     238
140.5200     231
140.5400     209
140.5600     216
140.5800     231
140.6000     236
140.6200     233
140.6400     217
140.6600     201
140.6800     215
140.7000     239
140.7200     258
140.7400     269
140.7600     253
140.7800     239
140.8000     282
140.8200     332
140.8400     302
140.8600     242
140.8800     192
140.9000     159
140.9200     191
140.9400     235
140.9600     212
140.9800     173
141.0000     189
141.0200     223
141.0400     235
141.0600     240
141.0800     245
141.1000     250
141.1200     252
141.1400     252
141.1600     250
141.1800     249
141.2000     253
141.2200     264
141.2400     298
141.2600     336
141.2800     343
141.3000     325
141.3200     248
141.3400     162
141.3600     145
141.3800     160
141.4000     201
141.4200     236
141.4400     183
141.4600     113
141.4800     133
141.5000     182
141.5200     196
141.5400     192
141.5600     166
141.5800     144
141.6000     184
141.6200     244
141.6400     287
141.6600     316
141.6800     307
141.7000     280
141.7200     241
141.7400     196
141.7600     146
141.7800     108
141.8000     140
141.8200     195
141.8400     220
141.8600     229
141.8800     211
141.9000     185
141.9200     169
141.9400     165
141.9600     198
141.9800     233
142.0000     203
142.0200     163
142.0400     203
142.0600     269
142.0800     303
142.1000     313
142.1200     261
142.1400     200
142.1600     209
142.1800     242
142.2000     250
142.2200     248
142.2400     243
142.2600     238
142.2800     238
142.3000     244
142.3200     273
142.3400     301
142.3600     277
142.3800     239
142.4000     230
142.4200     228
142.4400     209
142.4600     196
142.4800     245
142.5000     310
142.5200     333
142.5400     334
142.5600     307
142.5800     272
142.6000     252
142.6200     241
142.6400     250
142.6600     263
142.6800     264
142.7000     258
142.7200     239
142.7400     215
142.7600     193
142.7800     176
142.8000     189
142.8200     208
142.8400     200
142.8600     197
142.8800     271
142.9000     353
142.9200     323
142.9400     254
142.9600     208
142.9800     175
143.0000     154
143.0200     148
143.0400     190
143.0600     238
143.0800     213
143.1000     167
143.1200     164
143.1400     178
143.1600     189
143.1800     199
143.2000     214
143.2200     231
143.2400     251
143.2600     273
143.2800     293
143.3000     309
143.3200     300
143.3400     275
143.3600     215
143.3800     161
143.4000     204
143.4200     272
143.4400     275
143.4600     265
143.4800     328
143.5000     394
143.5200     330
143.5400     231
143.5600     214
143.5800     225
143.6000     209
143.6200     187
143.6400     187
143.6600     196
143.6800     213
143.7000     232
143.7200     243
143.7400     261
143.7600     332
143.7800     401
143.8000     355
143.8200     272
143.8400     233
143.8600     218
143.8800     239
143.9000     276
143.9200     315
143.9400     341
143.9600     297
143.9800     238
144.0000     246
144.0200     267
144.0400     223
144.0600     164
144.0800     163
144.1000     192
144.1200     254
144.1400     313
144.1600     286
144.1800     229
144.2000     197
144.2200     177
144.2400     168
144.2600     170
144.2800     197
144.3000     225
144.3200     205
144.3400     175
144.3600     197
144.3800     235
144.4000     256
144.4200     272
144.4400     300
144.4600     325
144.4800     317
144.5000     297
144.5200     290
144.5400     284
144.5600     258
144.5800     226
144.6000     201
144.6200     191
144.6400     241
144.6600     307
144.6800     334
144.7000     340
144.7200     311
144.7400     279
144.7600     295
144.7800     323
144.8000     311
144.8200     283
144.8400     252
144.8600     228
144.8800     247
144.9000     274
144.9200     255
144.9400     230
144.9600     271
144.9800     332
145.0000     355
145.0200     355
145.0400     318
145.0600     276
145.0800     284
145.1000     312
145.1200     335
145.1400     342
145.1600     276
145.1800     201
145.2000     231
145.2200     287
145.2400     266
145.2600     236
145.2800     315
145.3000     418
145.3200     431
145.3400     405
145.3600     367
145.3800     328
145.4000     306
145.4200     297
145.4400     326
145.4600     366
145.4800     383
145.5000     388
145.5200     381
145.5400     363
145.5600     310
145.5800     260
145.6000     287
145.6200     329
145.6400     291
145.6600     235
145.6800     250
145.7000     287
145.7200     289
145.7400     288
145.7600     341
145.7800     404
145.8000     415
145.8200     396
145.8400     332
145.8600     262
145.8800     254
145.9000     268
145.9200     275
145.9400     276
145.9600     259
145.9800     244
146.0000     277
146.0200     315
146.0400     278
146.0600     224
146.0800     227
146.1000     248
146.1200     249
146.1400     245
146.1600     263
146.1800     289
146.2000     316
146.2200     332
146.2400     288
146.2600     230
146.2800     219
146.3000     226
146.3200     230
146.3400     242
146.3600     309
146.3800     377
146.4000     343
146.4200     280
146.4400     274
146.4600     280
146.4800     234
146.5000     181
146.5200     191
146.5400     219
146.5600     206
146.5800     189
146.6000     240
146.6200     304
146.6400     295
146.6600     261
146.6800     250
146.7000     253
146.7200     279
146.7400     309
146.7600     308
146.7800     302
146.8000     336
146.8200     376
146.8400     367
146.8600     345
146.8800     348
146.9000     352
146.9200     306
146.9400     254
146.9600     269
146.9800     307
147.0000     326
147.0200     342
147.0400     375
147.0600     405
147.0800     388
147.1000     344
147.1200     260
147.1400     186
147.1600     239
147.1800     329
147.2000     352
147.2200     350
147.2400     358
147.2600     368
147.2800     367
147.3000     362
147.3200     363
147.3400     366
147.3600     363
147.3800     360
147.4000     373
147.4200     396
147.4400     431
147.4600     457
147.4800     413
147.5000     355
147.5200     367
147.5400     392
147.5600     344
147.5800     278
147.6000     277
147.6200     298
147.6400     307
147.6600     313
147.6800     329
147.7000     344
147.7200     334
147.7400     317
147.7600     314
147.7800     317
147.8000     326
147.8200     336
147.8400     336
147.8600     337
147.8800     358
147.9000     382
147.9200     374
147.9400     361
147.9600     383
147.9800     415
148.0000     422
148.0200     411
148.0400     357
148.0600     293
148.0800     267
148.1000     269
148.1200     331
148.1400     402
148.1600     396
148.1800     355
148.2000     284
148.2200     222
148.2400     260
148.2600     328
148.2800     348
148.3000     341
148.3200     302
148.3400     265
148.3600     303
148.3800     364
148.4000     390
148.4200     397
148.4400     376
148.4600     344
148.4800     312
148.5000     286
148.5200     293
148.5400     310
148.5600     309
148.5800     315
148.6000     391
148.6200     468
148.6400     410
148.6600     320
148.6800     343
148.7000     397
148.7200     380
148.7400     340
148.7600     331
148.7800     340
148.8000     369
148.8200     405
148.8400     428
148.8600     448
148.8800     478
148.9000     506
148.9200     509
148.9400     487
148.9600     397
148.9800     300
149.0000     308
149.0200     347
149.0400     332
149.0600     301
149.0800     295
149.1000     306
149.1200     352
149.1400     396
149.1600     355
149.1800     301
149.2000     344
149.2200     411
149.2400     406
149.2600     375
149.2800     357
149.3000     347
149.3200     346
149.3400     351
149.3600     371
149.3800     391
149.4000     384
149.4200     371
149.4400     380
149.4600     399
149.4800     428
149.5000     455
149.5200     455
149.5400     438
149.5600     383
149.5800     323
149.6000     313
149.6200     325
149.6400     350
149.6600     383
149.6800     431
149.7000     472
149.7200     446
149.7400     405
149.7600     418
149.7800     441
149.8000     409
149.8200     367
149.8400     385
149.8600     425
149.8800     458
149.9000     479
149.9200     453
149.9400     414
149.9600     397
149.9800     396
150.0000     432
150.0200     464
150.0400     407
150.0600     340
150.0800     398
150.1000     490
150.1200     501
150.1400     484
150.1600     493
150.1800     514
150.2000     537
150.2200     545
150.2400     475
150.2600     388
150.2800     379
150.3000     407
150.3200     463
150.3400     520
150.3600     521
150.3800     505
150.4000     520
150.4200     545
150.4400     552
150.4600     541
150.4800     475
150.5000     399
150.5200     386
150.5400     404
150.5600     449
150.5800     497
150.6000     503
150.6200     493
150.6400     483
150.6600     484
150.6800     537
150.7000     590
150.7200     539
150.7400     463
150.7600     464
150.7800     502
150.8000     568
150.8200     622
150.8400     558
150.8600     464
150.8800     460
150.9000     489
150.9200     501
150.9400     513
150.9600     557
150.9800     598
151.0000     566
151.0200     513
151.0400     505
151.0600     514
151.0800     523
151.1000     525
151.1200     500
151.1400     478
151.1600     521
151.1800     594
151.2000     682
151.2200     756
151.2400     727
151.2600     657
151.2800     592
151.3000     546
151.3200     592
151.3400     652
151.3600     602
151.3800     525
151.4000     534
151.4200     576
151.4400     605
151.4600     621
151.4800     595
151.5000     567
151.5200     607
151.5400     652
151.5600     579
151.5800     493
151.6000     580
151.6200     713
151.6400     726
151.6600     691
151.6800     648
151.7000     610
151.7200     613
151.7400     628
151.7600     615
151.7800     602
151.8000     646
151.8200     700
151.8400     694
151.8600     667
151.8800     656
151.9000     662
151.9200     718
151.9400     775
151.9600     732
151.9800     671
152.0000     713
152.0200     789
152.0400     820
152.0600     834
152.0800     845
152.1000     860
152.1200     903
152.1400     936
152.1600     864
152.1800     773
152.2000     799
152.2200     855
152.2400     833
152.2600     791
152.2800     809
152.3000     846
152.3200     858
152.3400     860
152.3600     862
152.3800     867
152.4000     888
152.4200     915
152.4400     937
152.4600     957
152.4800     972
152.5000     996
152.5200    1072
152.5400    1146
152.5600    1112
152.5800    1046
152.6000    1045
152.6200    1070
152.6400    1102
152.6600    1131
152.6800    1136
152.7000    1137
152.7200    1158
152.7400    1186
152.7600    1204
152.7800    1217
152.8000    1225
152.8200    1224
152.8400    1185
152.8600    1142
152.8800    1159
152.9000    1205
152.9200    1283
152.9400    1360
152.9600    1372
152.9800    1366
153.0000    1403
153.0200    1447
153.0400    1443
153.0600    1413
153.0800    1353
153.1000    1304
153.1200    1372
153.1400    1475
153.1600    1528
153.1800    1549
153.2000    1515
153.2200    1476
153.2400    1520
153.2600    1584
153.2800    1580
153.3000    1560
153.3200    1598
153.3400    1663
153.3600    1745
153.3800    1814
153.4000    1791
153.4200    1734
153.4400    1691
153.4600    1656
153.4800    1641
153.5000    1641
153.5200    1681
153.5400    1744
153.5600    1844
153.5800    1946
153.6000    1991
153.6200    1997
153.6400    1925
153.6600    1854
153.6800    1950
153.7000    2090
153.7200    2121
153.7400    2105
153.7600    2068
153.7800    2028
153.8000    2019
153.8200    2038
153.8400    2129
153.8600    2222
153.8800    2183
153.9000    2103
153.9200    2080
153.9400    2089
153.9600    2146
153.9800    2199
154.0000    2137
154.0200    2045
154.0400    2030
154.0600    2068
154.0800    2214
154.1000    2389
154.1200    2489
154.1400    2538
154.1600    2480
154.1800    2383
154.2000    2298
154.2200    2220
154.2400    2154
154.2600    2122
154.2800    2245
154.3000    2389
154.3200    2331
154.3400    2212
154.3600    2188
154.3800    2203
154.4000    2225
154.4200    2237
154.4400    2192
154.4600    2150
154.4800    2233
154.5000    2351
154.5200    2386
154.5400    2394
154.5600    2432
154.5800    2468
154.6000    2439
154.6200    2373
154.6400    2255
154.6600    2144
154.6800    2168
154.7000    2234
154.7200    2242
154.7400    2217
154.7600    2150
154.7800    2074
154.8000    2035
154.8200    2021
154.8400    2059
154.8600    2109
154.8800    2124
154.9000    2131
154.9200    2176
154.9400    2216
154.9600    2155
154.9800    2067
155.0000    2054
155.0200    2067
155.0400    2067
155.0600    2060
155.0800    2053
155.1000    2048
155.1200    2060
155.1400    2066
155.1600    2012
155.1800    1939
155.2000    1896
155.2200    1856
155.2400    1778
155.2600    1696
155.2800    1679
155.3000    1688
155.3200    1700
155.3400    1717
155.3600    1746
155.3800    1776
155.4000    1787
155.4200    1795
155.4400    1820
155.4600    1834
155.4800    1756
155.5000    1650
155.5200    1584
155.5400    1547
155.5600    1573
155.5800    1612
155.6000    1586
155.6200    1533
155.6400    1470
155.6600    1412
155.6800    1392
155.7000    1399
155.7200    1460
155.7400    1531
155.7600    1548
155.7800    1541
155.8000    1518
155.8200    1494
155.8400    1501
155.8600    1510
155.8800    1461
155.9000    1393
155.9200    1348
155.9400    1309
155.9600    1250
155.9800    1185
156.0000    1127
156.0200    1086
156.0400    1120
156.0600    1182
156.0800    1237
156.1000    1278
156.1200    1263
156.1400    1218
156.1600    1141
156.1800    1071
156.2000    1103
156.2200    1158
156.2400    1130
156.2600    1081
156.2800    1097
156.3000    1124
156.3200    1081
156.3400    1014
156.3600     974
156.3800     959
156.4000    1020
156.4200    1091
156.4400    1052
156.4600     994
156.4800    1058
156.5000    1145
156.5200    1105
156.5400    1017
156.5600     937
156.5800     868
156.6000     833
156.6200     819
156.6400     848
156.6600     896
156.6800     951
156.7000     979
156.7200     860
156.7400     709
156.7600     695
156.7800     735
156.8000     775
156.8200     808
156.8400     806
156.8600     793
156.8800     797
156.9000     805
156.9200     803
156.9400     800
156.9600     813
156.9800     830
157.0000     831
157.0200     827
157.0400     834
157.0600     842
157.0800     829
157.1000     804
157.1200     765
157.1400     729
157.1600     728
157.1800     740
157.2000     740
157.2200     733
157.2400     706
157.2600     679
157.2800     685
157.3000     700
157.3200     685
157.3400     668
157.3600     698
157.3800     732
157.4000     698
157.4200     646
157.4400     649
157.4600     670
157.4800     679
157.5000     681
157.5200     673
157.5400     666
157.5600     681
157.5800     704
157.6000     725
157.6200     739
157.6400     722
157.6600     689
157.6800     646
157.7000     606
157.7200     608
157.7400     629
157.7600     665
157.7800     693
157.8000     656
157.8200     601
157.8400     594
157.8600     600
157.8800     573
157.9000     533
157.9200     495
157.9400     471
157.9600     522
157.9800     596
158.0000     642
158.0200     665
158.0400     633
158.0600     579
158.0800     528
158.1000     488
158.1200     498
158.1400     527
158.1600     553
158.1800     569
158.2000     545
158.2200     518
158.2400     558
158.2600     601
158.2800     532
158.3000     449
158.3200     523
158.3400     635
158.3600     630
158.3800     588
158.4000     593
158.4200     606
158.4400     562
158.4600     507
158.4800     505
158.5000     525
158.5200     544
158.5400     565
158.5600     606
158.5800     639
158.6000     600
158.6200     542
158.6400     534
158.6600     548
158.6800     569
158.7000     580
158.7200     524
158.7400     464
158.7600     512
158.7800     585
158.8000     563
158.8200     516
158.8400     529
158.8600     557
158.8800     532
158.9000     492
158.9200     483
158.9400     490
158.9600     507
158.9800     518
159.0000     474
159.0200     418
159.0400     412
159.0600     430
159.0800     465
159.1000     492
159.1200     445
159.1400     384
159.1600     397
159.1800     427
159.2000     397
159.2200     359
159.2400     402
159.2600     470
159.2800     498
159.3000     505
159.3200     484
159.3400     458
159.3600     462
159.3800     469
159.4000     431
159.4200     393
159.4400     443
159.4600     515
159.4800     517
159.5000     494
159.5200     483
159.5400     474
159.5600     453
159.5800     435
159.6000     459
159.6200     490
159.6400     479
159.6600     451
159.6800     418
159.7000     391
159.7200     397
159.7400     416
159.7600     429
159.7800     430
159.8000     391
159.8200     349
159.8400     379
159.8600     430
159.8800     446
159.9000     443
159.9200     416
159.9400     389
159.9600     406
159.9800     430
160.0000     407
160.0200     381
160.0400     435
160.0600     510
160.0800     527
160.1000     513
160.1200     459
160.1400     399
160.1600     394
160.1800     412
160.2000     440
160.2200     462
160.2400     437
160.2600     397
160.2800     374
160.3000     368
160.3200     410
160.3400     461
160.3600     459
160.3800     439
160.4000     437
160.4200     439
160.4400     418
160.4600     389
160.4800     366
160.5000     361
160.5200     426
160.5400     499
160.5600     465
160.5800     406
160.6000     432
160.6200     481
160.6400     474
160.6600     446
160.6800     428
160.7000     412
160.7200     389
160.7400     365
160.7600     353
160.7800     347
160.8000     353
160.8200     371
160.8400     429
160.8600     479
160.8800     410
160.9000     311
160.9200     294
160.9400     310
160.9600     326
160.9800     343
161.0000     367
161.0200     398
161.0400     454
161.0600     499
161.0800     440
161.1000     363
161.1200     401
161.1400     462
161.1600     408
161.1800     322
161.2000     303
161.2200     317
161.2400     364
161.2600     420
161.2800     453
161.3000     471
161.3200     457
161.3400     438
161.3600     451
161.3800     470
161.4000     459
161.4200     439
161.4400     439
161.4600     436
161.4800     381
161.5000     327
161.5200     380
161.5400     455
161.5600     423
161.5800     361
161.6000     361
161.6200     374
161.6400     335
161.6600     286
161.6800     289
161.7000     309
161.7200     312
161.7400     320
161.7600     388
161.7800     458
161.8000     413
161.8200     335
161.8400     319
161.8600     336
161.8800     396
161.9000     460
161.9200     451
161.9400     411
161.9600     361
161.9800     322