File: XRD_Tool/XRD_Tool/bin/Debug/LDA_sample_name_56789_Psi-0_20180603-111606.txt
137.2000     220
137.2400     245
137.2800     246
137.3200     248
137.3600     280
137.4000     261
137.4400     243
137.4800     259
137.5200     274
137.5600     252
137.6000     259
137.6400     241
137.6800     249
137.7200     268
137.7600     244
137.8000     265
137.8400     266
137.8800     239
137.9200     237
137.9600     244
138.0000     264
138.0400     292
138.0800     262
138.1200     279
138.1600     276
138.2000     243
138.2400     255
138.2800     251
138.3200     260
138.3600     256
138.4000     280
138.4400     270
138.4800     273
138.5200     256
138.5600     267
138.6000     250
138.6400     240
138.6800     284
138.7200     273
138.7600     287
138.8000     243
138.8400     267
138.8800     273
138.9200     278
138.9600     262
139.0000     273
139.0400     233
139.0800     236
139.1200     273
139.1600     260
139.2000     266
139.2400     231
139.2800     236
139.3200     223
139.3600     233
139.4000     234
139.4400     238
139.4800     225
139.5200     273
139.5600     254
139.6000     259
139.6400     241
139.6800     243
139.7200     268
139.7600     278
139.8000     243
139.8400     248
139.8800     272
139.9200     255
139.9600     295
140.0000     252
140.0400     255
140.0800     258
140.1200     241
140.1600     227
140.2000     284
140.2400     265
140.2800     261
140.3200     246
140.3600     290
140.4000     238
140.4400     275
140.4800     243
140.5200     263
140.5600     295
140.6000     264
140.6400     273
140.6800     231
140.7200     252
140.7600     246
140.8000     253
140.8400     276
140.8800     265
140.9200     260
140.9600     259
141.0000     259
141.0400     263
141.0800     262
141.1200     286
141.1600     280
141.2000     262
141.2400     275
141.2800     277
141.3200     277
141.3600     250
141.4000     263
141.4400     281
141.4800     250
141.5200     265
141.5600     256
141.6000     252
141.6400     245
141.6800     278
141.7200     264
141.7600     264
141.8000     237
141.8400     240
141.8800     259
141.9200     274
141.9600     252
142.0000     299
142.0400     245
142.0800     258
142.1200     276
142.1600     251
142.2000     257
142.2400     297
142.2800     278
142.3200     259
142.3600     261
142.4000     283
142.4400     269
142.4800     254
142.5200     278
142.5600     280
142.6000     279
142.6400     295
142.6800     294
142.7200     276
142.7600     274
142.8000     248
142.8400     240
142.8800     246
142.9200     257
142.9600     249
143.0000     264
143.0400     260
143.0800     268
143.1200     269
143.1600     287
143.2000     267
143.2400     273
143.2800     246
143.3200     274
143.3600     255
143.4000     237
143.4400     234
143.4800     265
143.5200     275
143.5600     267
143.6000     238
143.6400     252
143.6800     284
143.7200     266
143.7600     258
143.8000     268
143.8400     263
143.8800     261
143.9200     269
143.9600     277
144.0000     275
144.0400     286
144.0800     288
144.1200     282
144.1600     301
144.2000     265
144.2400     262
144.2800     263
144.3200     270
144.3600     263
144.4000     273
144.4400     276
144.4800     279
144.5200     244
144.5600     246
144.6000     247
144.6400     307
144.6800     250
144.7200     266
144.7600     247
144.8000     280
144.8400     287
144.8800     278
144.9200     310
144.9600     295
145.0000     291
145.0400     287
145.0800     251
145.1200     262
145.1600     276
145.2000     275
145.2400     262
145.2800     291
145.3200     278
145.3600     261
145.4000     291
145.4400     323
145.4800     283
145.5200     272
145.5600     270
145.6000     246
145.6400     288
145.6800     241
145.7200     277
145.7600     291
145.8000     275
145.8400     255
145.8800     267
145.9200     276
145.9600     252
146.0000     264
146.0400     257
146.0800     289
146.1200     266
146.1600     269
146.2000     289
146.2400     287
146.2800     281
146.3200     271
146.3600     253
146.4000     310
146.4400     265
146.4800     293
146.5200     268
146.5600     250
146.6000     270
146.6400     253
146.6800     285
146.7200     283
146.7600     261
146.8000     277
146.8400     299
146.8800     281
146.9200     282
146.9600     237
147.0000     281
147.0400     296
147.0800     296
147.1200     277
147.1600     283
147.2000     263
147.2400     253
147.2800     277
147.3200     263
147.3600     289
147.4000     256
147.4400     266
147.4800     303
147.5200     286
147.5600     241
147.6000     296
147.6400     291
147.6800     274
147.7200     284
147.7600     291
147.8000     297
147.8400     291
147.8800     294
147.9200     280
147.9600     299
148.0000     278
148.0400     271
148.0800     287
148.1200     273
148.1600     268
148.2000     297
148.2400     319
148.2800     275
148.3200     298
148.3600     300
148.4000     287
148.4400     298
148.4800     284
148.5200     292
148.5600     268
148.6000     260
148.6400     287
148.6800     308
148.7200     307
148.7600     303
148.8000     293
148.8400     305
148.8800     299
148.9200     267
148.9600     302
149.0000     282
149.0400     273
149.0800     294
149.1200     292
149.1600     302
149.2000     279
149.2400     280
149.2800     319
149.3200     319
149.3600     274
149.4000     311
149.4400     308
149.4800     289
149.5200     316
149.5600     290
149.6000     343
149.6400     319
149.6800     295
149.7200     323
149.7600     277
149.8000     311
149.8400     322
149.8800     297
149.9200     294
149.9600     298
150.0000     298
150.0400     305
150.0800     281
150.1200     306
150.1600     303
150.2000     263
150.2400     294
150.2800     301
150.3200     297
150.3600     297
150.4000     295
150.4400     310
150.4800     310
150.5200     313
150.5600     315
150.6000     354
150.6400     324
150.6800     345
150.7200     301
150.7600     323
150.8000     299
150.8400     322
150.8800     343
150.9200     341
150.9600     314
151.0000     322
151.0400     309
151.0800     302
151.1200     306
151.1600     333
151.2000     334
151.2400     318
151.2800     365
151.3200     333
151.3600     386
151.4000     317
151.4400     317
151.4800     359
151.5200     339
151.5600     343
151.6000     312
151.6400     370
151.6800     385
151.7200     355
151.7600     413
151.8000     350
151.8400     378
151.8800     359
151.9200     347
151.9600     359
152.0000     380
152.0400     394
152.0800     408
152.1200     367
152.1600     430
152.2000     383
152.2400     399
152.2800     423
152.3200     472
152.3600     422
152.4000     456
152.4400     382
152.4800     415
152.5200     407
152.5600     443
152.6000     420
152.6400     458
152.6800     467
152.7200     462
152.7600     504
152.8000     465
152.8400     477
152.8800     486
152.9200     492
152.9600     503
153.0000     492
153.0400     560
153.0800     559
153.1200     516
153.1600     517
153.2000     547
153.2400     548
153.2800     597
153.3200     527
153.3600     518
153.4000     639
153.4400     609
153.4800     652
153.5200     611
153.5600     631
153.6000     657
153.6400     670
153.6800     664
153.7200     696
153.7600     682
153.8000     693
153.8400     676
153.8800     722
153.9200     615
153.9600     765
154.0000     712
154.0400     790
154.0800     648
154.1200     734
154.1600     685
154.2000     763
154.2400     766
154.2800     731
154.3200     764
154.3600     773
154.4000     794
154.4400     793
154.4800     771
154.5200     763
154.5600     833
154.6000     774
154.6400     756
154.6800     729
154.7200     743
154.7600     685
154.8000     692
154.8400     729
154.8800     709
154.9200     780
154.9600     772
155.0000     714
155.0400     747
155.0800     753
155.1200     694
155.1600     750
155.2000     678
155.2400     715
155.2800     733
155.3200     674
155.3600     692
155.4000     728
155.4400     673
155.4800     637
155.5200     651
155.5600     630
155.6000     628
155.6400     607
155.6800     606
155.7200     591
155.7600     638
155.8000     634
155.8400     591
155.8800     637
155.9200     573
155.9600     528
156.0000     594
156.0400     563
156.0800     550
156.1200     563
156.1600     558
156.2000     544
156.2400     550
156.2800     501
156.3200     509
156.3600     514
156.4000     467
156.4400     508
156.4800     485
156.5200     528
156.5600     481
156.6000     465
156.6400     478
156.6800     505
156.7200     477
156.7600     431
156.8000     454
156.8400     427
156.8800     403
156.9200     398
156.9600     426
157.0000     416
157.0400     435
157.0800     446
157.1200     377
157.1600     360
157.2000     397
157.2400     394
157.2800     394
157.3200     387
157.3600     388
157.4000     401
157.4400     371
157.4800     380
157.5200     358
157.5600     380
157.6000     358
157.6400     354
157.6800     359
157.7200     414
157.7600     353
157.8000     367
157.8400     334
157.8800     394
157.9200     361
157.9600     385
158.0000     368
158.0400     373
158.0800     364
158.1200     354
158.1600     340
158.2000     345
158.2400     381
158.2800     339
158.3200     360
158.3600     343
158.4000     331
158.4400     320
158.4800     337
158.5200     323
158.5600     335
158.6000     353
158.6400     287
158.6800     295
158.7200     317
158.7600     344
158.8000     326
158.8400     326
158.8800     335
158.9200     322
158.9600     323
159.0000     321
159.0400     340
159.0800     350
159.1200     301
159.1600     316
159.2000     313
159.2400     322
159.2800     312
159.3200     287
159.3600     302
159.4000     338
159.4400     319
159.4800     314
159.5200     323
159.5600     284
159.6000     322
159.6400     301
159.6800     307
159.7200     303
159.7600     311
159.8000     329
159.8400     317
159.8800     299
159.9200     289
159.9600     273
160.0000     312
160.0400     284
160.0800     332
160.1200     266
160.1600     256
160.2000     299
160.2400     275
160.2800     307
160.3200     283
160.3600     316
160.4000     293
160.4400     286
160.4800     264
160.5200     283
160.5600     299
160.6000     266
160.6400     281
160.6800     284
160.7200     319
160.7600     274
160.8000     282
160.8400     283
160.8800     290
160.9200     293
160.9600     286
161.0000     268
161.0400     290
161.0800     303
161.1200     261
161.1600     278
161.2000     287
161.2400     271
161.2800     252
161.3200     277
161.3600     291
161.4000     290
161.4400     278
161.4800     300
161.5200     260
161.5600     255
161.6000     272
161.6400     254
161.6800     271
161.7200     292
161.7600     289
161.8000     278
161.8400     283
161.8800     304
161.9200     274
161.9600     266
162.0000     304
162.0400     289
162.0800     278
162.1200     263
162.1600     253
162.2000     262
162.2400     278
162.2800     261
162.3200     280
162.3600     273
162.4000     266
162.4400     252
162.4800     244
162.5200     309
162.5600     265
162.6000     260
162.6400     281
162.6800     272
162.7200     266
162.7600     260