File: XRD_Tool/XRD_Tool/bin/Debug/LDA_sample_name_56789_Psi-0_20180623-125759.txt
138.0000     341
138.0200     307
138.0400     278
138.0600     256
138.0800     252
138.1000     261
138.1200     294
138.1400     327
138.1600     318
138.1800     297
138.2000     299
138.2200     307
138.2400     290
138.2600     274
138.2800     305
138.3000     345
138.3200     338
138.3400     312
138.3600     286
138.3800     269
138.4000     297
138.4200     339
138.4400     361
138.4600     371
138.4800     361
138.5000     350
138.5200     374
138.5400     394
138.5600     321
138.5800     231
138.6000     246
138.6200     303
138.6400     363
138.6600     411
138.6800     389
138.7000     348
138.7200     352
138.7400     374
138.7600     394
138.7800     413
138.8000     424
138.8200     427
138.8400     408
138.8600     382
138.8800     365
138.9000     348
138.9200     316
138.9400     289
138.9600     322
138.9800     368
139.0000     366
139.0200     341
139.0400     302
139.0600     273
139.0800     316
139.1000     372
139.1200     348
139.1400     302
139.1600     306
139.1800     326
139.2000     329
139.2200     332
139.2400     367
139.2600     405
139.2800     393
139.3000     360
139.3200     324
139.3400     298
139.3600     335
139.3800     387
139.4000     387
139.4200     375
139.4400     403
139.4600     441
139.4800     446
139.5000     435
139.5200     412
139.5400     384
139.5600     353
139.5800     325
139.6000     319
139.6200     321
139.6400     324
139.6600     334
139.6800     374
139.7000     420
139.7200     435
139.7400     437
139.7600     442
139.7800     440
139.8000     400
139.8200     359
139.8400     396
139.8600     454
139.8800     457
139.9000     441
139.9200     437
139.9400     436
139.9600     433
139.9800     438
140.0000     488
140.0200     540
140.0400     509
140.0600     451
140.0800     421
140.1000     409
140.1200     424
140.1400     444
140.1600     435
140.1800     423
140.2000     450
140.2200     482
140.2400     464
140.2600     434
140.2800     449
140.3000     478
140.3200     490
140.3400     495
140.3600     495
140.3800     501
140.4000     547
140.4200     600
140.4400     606
140.4600     597
140.4800     602
140.5000     609
140.5200     602
140.5400     599
140.5600     641
140.5800     688
140.6000     670
140.6200     636
140.6400     651
140.6600     676
140.6800     659
140.7000     627
140.7200     607
140.7400     600
140.7600     641
140.7800     688
140.8000     669
140.8200     637
140.8400     675
140.8600     729
140.8800     723
140.9000     702
140.9200     729
140.9400     765
140.9600     753
140.9800     728
141.0000     738
141.0200     770
141.0400     842
141.0600     907
141.0800     860
141.1000     782
141.1200     773
141.1400     798
141.1600     859
141.1800     930
141.2000     976
141.2200    1005
141.2400     996
141.2600     977
141.2800     986
141.3000    1001
141.3200     990
141.3400     973
141.3600     986
141.3800    1018
141.4000    1093
141.4200    1163
141.4400    1122
141.4600    1049
141.4800    1044
141.5000    1075
141.5200    1149
141.5400    1226
141.5600    1228
141.5800    1218
141.6000    1297
141.6200    1389
141.6400    1372
141.6600    1320
141.6800    1307
141.7000    1312
141.7200    1335
141.7400    1354
141.7600    1320
141.7800    1277
141.8000    1301
141.8200    1363
141.8400    1488
141.8600    1617
141.8800    1643
141.9000    1631
141.9200    1637
141.9400    1648
141.9600    1642
141.9800    1642
142.0000    1702
142.0200    1798
142.0400    1951
142.0600    2095
142.0800    2082
142.1000    2028
142.1200    2083
142.1400    2154
142.1600    2090
142.1800    1997
142.2000    2032
142.2200    2114
142.2400    2174
142.2600    2251
142.2800    2452
142.3000    2643
142.3200    2542
142.3400    2356
142.3600    2330
142.3800    2381
142.4000    2497
142.4200    2630
142.4400    2716
142.4600    2776
142.4800    2796
142.5000    2806
142.5200    2841
142.5400    2884
142.5600    2912
142.5800    2923
142.6000    2877
142.6200    2820
142.6400    2813
142.6600    2848
142.6800    2990
142.7000    3124
142.7200    3011
142.7400    2832
142.7600    2813
142.7800    2843
142.8000    2795
142.8200    2725
142.8400    2703
142.8600    2698
142.8800    2675
142.9000    2652
142.9200    2667
142.9400    2706
142.9600    2792
142.9800    2884
143.0000    2916
143.0200    2911
143.0400    2843
143.0600    2755
143.0800    2697
143.1000    2652
143.1200    2617
143.1400    2598
143.1600    2644
143.1800    2689
143.2000    2601
143.2200    2467
143.2400    2373
143.2600    2297
143.2800    2232
143.3000    2190
143.3200    2238
143.3400    2306
143.3600    2289
143.3800    2237
143.4000    2175
143.4200    2128
143.4400    2176
143.4600    2249
143.4800    2255
143.5000    2229
143.5200    2168
143.5400    2094
143.5600    2018
143.5800    1951
143.6000    1926
143.6200    1911
143.6400    1863
143.6600    1808
143.6800    1789
143.7000    1783
143.7200    1764
143.7400    1735
143.7600    1681
143.7800    1631
143.8000    1651
143.8200    1681
143.8400    1624
143.8600    1535
143.8800    1456
143.9000    1395
143.9200    1399
143.9400    1424
143.9600    1422
143.9800    1418
144.0000    1449
144.0200    1477
144.0400    1415
144.0600    1327
144.0800    1291
144.1000    1276
144.1200    1269
144.1400    1275
144.1600    1330
144.1800    1384
144.2000    1343
144.2200    1273
144.2400    1255
144.2600    1251
144.2800    1218
144.3000    1170
144.3200    1099
144.3400    1031
144.3600    1025
144.3800    1036
144.4000    1017
144.4200     987
144.4400     965
144.4600     947
144.4800     929
144.5000     919
144.5200     947
144.5400     982
144.5600     967
144.5800     938
144.6000     931
144.6200     927
144.6400     896
144.6600     850
144.6800     786
144.7000     736
144.7200     796
144.7400     880
144.7600     862
144.7800     811
144.8000     792
144.8200     784
144.8400     766
144.8600     734
144.8800     657
144.9000     579
144.9200     591
144.9400     635
144.9600     659
144.9800     664
145.0000     617
145.0200     560
145.0400     557
145.0600     568
145.0800     549
145.1000     519
145.1200     502
145.1400     490
145.1600     473
145.1800     456
145.2000     442
145.2200     433
145.2400     434
145.2600     436
145.2800     418
145.3000     394
145.3200     378
145.3400     374
145.3600     405
145.3800     445
145.4000     453
145.4200     447
145.4400     428
145.4600     402
145.4800     364
145.5000     328
145.5200     324
145.5400     334
145.5600     356
145.5800     374
145.6000     353
145.6200     319
145.6400     290
145.6600     269
145.6800     275
145.7000     285
145.7200     268
145.7400     244
145.7600     235
145.7800     239
145.8000     275
145.8200     311
145.8400     285
145.8600     243
145.8800     239
145.9000     252
145.9200     265
145.9400     274
145.9600     258
145.9800     236
146.0000     231
146.0200     233
146.0400     238
146.0600     247
146.0800     271
146.1000     293
146.1200     272
146.1400     234
146.1600     199
146.1800     173
146.2000     184
146.2200     202
146.2400     183
146.2600     159
146.2800     183
146.3000     221
146.3200     229
146.3400     226
146.3600     223
146.3800     217
146.4000     193
146.4200     169
146.4400     185
146.4600     209
146.4800     191
146.5000     161
146.5200     153
146.5400     154
146.5600     163
146.5800     175
146.6000     182
146.6200     186
146.6400     177
146.6600     166
146.6800     170
146.7000     178
146.7200     177
146.7400     177
146.7600     196
146.7800     216
146.8000     211
146.8200     192
146.8400     158
146.8600     129
146.8800     153
146.9000     194
146.9200     207
146.9400     207
146.9600     197
146.9800     183
147.0000     170
147.0200     158
147.0400     145
147.0600     136
147.0800     157
147.1000     184
147.1200     189
147.1400     186
147.1600     185
147.1800     185
147.2000     185
147.2200     184
147.2400     180
147.2600     175
147.2800     178
147.3000     181
147.3200     171
147.3400     157
147.3600     156
147.3800     157
147.4000     140
147.4200     121
147.4400     130
147.4600     147
147.4800     146
147.5000     139
147.5200     135
147.5400     138
147.5600     163
147.5800     191
147.6000     190
147.6200     183
147.6400     196
147.6600     210
147.6800     182
147.7000     145
147.7200     143
147.7400     154
147.7600     159
147.7800     161
147.8000     164
147.8200     170
147.8400     186
147.8600     198
147.8800     167
147.9000     129
147.9200     139
147.9400     162
147.9600     152
147.9800     132
148.0000     134
148.0200     139
148.0400     120
148.0600      97
148.0800      96
148.1000     106
148.1200     124
148.1400     143
148.1600     149
148.1800     152
148.2000     172
148.2200     188
148.2400     159
148.2600     121
148.2800     131
148.3000     156
148.3200     154
148.3400     149
148.3600     176
148.3800     208
148.4000     198
148.4200     180
148.4400     202
148.4600     230
148.4800     206
148.5000     172
148.5200     183
148.5400     204
148.5600     177
148.5800     140
148.6000     153
148.6200     178
148.6400     168
148.6600     148
148.6800     146
148.7000     150
148.7200     141
148.7400     129
148.7600     130
148.7800     139
148.8000     160
148.8200     179
148.8400     166
148.8600     147
148.8800     163
148.9000     184
148.9200     160
148.9400     128
148.9600     146
148.9800     177
149.0000     170
149.0200     149
149.0400     134
149.0600     125
149.0800     130
149.1000     141
149.1200     162
149.1400     176
149.1600     142
149.1800      99
149.2000     112
149.2200     141
149.2400     132
149.2600     112
149.2800     114
149.3000     120
149.3200     111
149.3400      98
149.3600     102
149.3800     115
149.4000     143
149.4200     168
149.4400     149
149.4600     121
149.4800     132
149.5000     153
149.5200     154
149.5400     148
149.5600     155
149.5800     165
149.6000     162
149.6200     159
149.6400     181
149.6600     202
149.6800     166
149.7000     118
149.7200     122
149.7400     143
149.7600     149
149.7800     147
149.8000     133
149.8200     120
149.8400     129
149.8600     144
149.8800     144
149.9000     138
149.9200     137
149.9400     136
149.9600     133
149.9800     132
150.0000     145
150.0200     159
150.0400     158
150.0600     150
150.0800     145
150.1000     143
150.1200     146
150.1400     150
150.1600     146
150.1800     138
150.2000     132
150.2200     127
150.2400     128
150.2600     127
150.2800     100
150.3000      70
150.3200      80
150.3400     104
150.3600     123
150.3800     133
150.4000     115
150.4200      93
150.4400     111
150.4600     137
150.4800     123
150.5000     101
150.5200     122
150.5400     155
150.5600     161
150.5800     158
150.6000     157
150.6200     157
150.6400     159
150.6600     159
150.6800     149
150.7000     137
150.7200     135
150.7400     135
150.7600     126
150.7800     117
150.8000     118
150.8200     123
150.8400     121
150.8600     115
150.8800      94
150.9000      78
150.9200     110
150.9400     151
150.9600     137
150.9800     106
151.0000      95
151.0200      94
151.0400      96
151.0600     100
151.0800     104
151.1000     110
151.1200     123
151.1400     137
151.1600     143
151.1800     141
151.2000     122
151.2200     102
151.2400     110
151.2600     125
151.2800     114
151.3000      96
151.3200     103
151.3400     116
151.3600     114
151.3800     108
151.4000     110
151.4200     115
151.4400     117
151.4600     119
151.4800     129
151.5000     141
151.5200     143
151.5400     136
151.5600     104
151.5800      76
151.6000     120
151.6200     176
151.6400     155
151.6600     113
151.6800     121
151.7000     145
151.7200     146
151.7400     139
151.7600     135
151.7800     130
151.8000     110
151.8200      91
151.8400     105
151.8600     127
151.8800     114
151.9000      94
151.9200     106
151.9400     126
151.9600     128
151.9800     120
152.0000     103
152.0200      87
152.0400      86
152.0600      91
152.0800      89
152.1000      90
152.1200     116
152.1400     144
152.1600     131
152.1800     103
152.2000      86
152.2200      81
152.2400     106
152.2600     134
152.2800     114
152.3000      83
152.3200     100
152.3400     133
152.3600     150
152.3800     154
152.4000     128
152.4200      97
152.4400     102
152.4600     120
152.4800     128
152.5000     131
152.5200     129
152.5400     123
152.5600     107
152.5800      96
152.6000     125
152.6200     161
152.6400     149
152.6600     123
152.6800     130
152.7000     143
152.7200     120
152.7400      91
152.7600     110
152.7800     140
152.8000     132
152.8200     115
152.8400     131
152.8600     156
152.8800     154
152.9000     143
152.9200     132
152.9400     122
152.9600     114
152.9800     110
153.0000     126
153.0200     145
153.0400     142
153.0600     132
153.0800     129
153.1000     125
153.1200     101
153.1400      78
153.1600      98
153.1800     134
153.2000     158
153.2200     172
153.2400     155
153.2600     132
153.2800     147
153.3000     166
153.3200     130
153.3400      84
153.3600      96
153.3800     124
153.4000     109
153.4200      83
153.4400      90
153.4600     106
153.4800     102
153.5000      95
153.5200     113
153.5400     133
153.5600     113
153.5800      84
153.6000      89
153.6200     108
153.6400     135
153.6600     162
153.6800     176
153.7000     178
153.7200     152
153.7400     120
153.7600     119
153.7800     131
153.8000     143
153.8200     151
153.8400     134
153.8600     115
153.8800     129
153.9000     150
153.9200     136
153.9400     114
153.9600     121
153.9800     132
154.0000     108
154.0200      77
154.0400      84
154.0600     105
154.0800     119
154.1000     129
154.1200     126
154.1400     120
154.1600     124
154.1800     128
154.2000     112
154.2200      91
154.2400      85
154.2600      85
154.2800      85
154.3000      82
154.3200      64
154.3400      48
154.3600      70
154.3800     102
154.4000     101
154.4200      92
154.4400     109
154.4600     132
154.4800     130
154.5000     121
154.5200     122
154.5400     126
154.5600     120
154.5800     113
154.6000     123
154.6200     135
154.6400     130
154.6600     117
154.6800      94
154.7000      73
154.7200      79
154.7400      98
154.7600     134
154.7800     165
154.8000     144
154.8200     108
154.8400     102
154.8600     109
154.8800     118
154.9000     127
154.9200     136
154.9400     143
154.9600     143
154.9800     140
155.0000     129
155.0200     116
155.0400     111
155.0600     111
155.0800     121
155.1000     134
155.1200     140
155.1400     142
155.1600     134
155.1800     122
155.2000     105
155.2200      90
155.2400      90
155.2600      98
155.2800     114
155.3000     125
155.3200      91
155.3400      51
155.3600      71
155.3800     110
155.4000     119
155.4200     114
155.4400      92
155.4600      71
155.4800      82
155.5000     101
155.5200      98
155.5400      90
155.5600     101
155.5800     117
155.6000     124
155.6200     124
155.6400     103
155.6600      82
155.6800     106
155.7000     141
155.7200     146
155.7400     136
155.7600     119
155.7800     100
155.8000      86
155.8200      76
155.8400      75
155.8600      75
155.8800      70
155.9000      66
155.9200      84
155.9400     106
155.9600     113
155.9800     113
156.0000     115
156.0200     116
156.0400     112
156.0600     106
156.0800     105
156.1000     102
156.1200      87
156.1400      72
156.1600      82
156.1800      99
156.2000      96
156.2200      90
156.2400     104
156.2600     121
156.2800     113
156.3000      96
156.3200      86
156.3400      81
156.3600      93
156.3800     109
156.4000     120
156.4200     123
156.4400     103
156.4600      78
156.4800      81
156.5000      95
156.5200     106
156.5400     113
156.5600     110
156.5800     104
156.6000     110
156.6200     116
156.6400     105
156.6600      93
156.6800     111
156.7000     131
156.7200      99
156.7400      52
156.7600      29
156.7800      20
156.8000      39
156.8200      69
156.8400      99
156.8600     123
156.8800     114
156.9000      95
156.9200      96
156.9400     105
156.9600     122
156.9800     134
157.0000     103
157.0200      63
157.0400      66
157.0600      85
157.0800      94
157.1000      97
157.1200      87
157.1400      74
157.1600      76
157.1800      81
157.2000      73
157.2200      63
157.2400      74
157.2600      94
157.2800     111
157.3000     123
157.3200     113
157.3400     100
157.3600     109
157.3800     124
157.4000     125
157.4200     125
157.4400     142
157.4600     159
157.4800     143
157.5000     119
157.5200     130
157.5400     151
157.5600     159
157.5800     155
157.6000     124
157.6200      90
157.6400      96
157.6600     115
157.6800     119
157.7000     117
157.7200     117
157.7400     115
157.7600     103
157.7800      89
157.8000      87
157.8200      87
157.8400      77
157.8600      66
157.8800      71
157.9000      84
157.9200      97
157.9400     108
157.9600     106
157.9800     100
158.0000     106
158.0200     116
158.0400     127
158.0600     136
158.0800     127
158.1000     114
158.1200     118
158.1400     124
158.1600     113
158.1800     101
158.2000     116
158.2200     133
158.2400     110
158.2600      75
158.2800      65
158.3000      72
158.3200     116
158.3400     160
158.3600     135
158.3800      89
158.4000      70
158.4200      63
158.4400      64
158.4600      71
158.4800      92
158.5000     113
158.5200     112
158.5400     108
158.5600     132
158.5800     159
158.6000     136
158.6200     102
158.6400     105
158.6600     117
158.6800     104
158.7000      87
158.7200     105
158.7400     127
158.7600     101
158.7800      64
158.8000      77
158.8200      99
158.8400      69
158.8600      34
158.8800      71
158.9000     124
158.9200     115
158.9400      84
158.9600      66
158.9800      59
159.0000      72
159.0200      92
159.0400     102
159.0600     107
159.0800     104
159.1000      97
159.1200      85
159.1400      72
159.1600      67
159.1800      68
159.2000      86
159.2200     105
159.2400     102
159.2600      93
159.2800      99
159.3000     107
159.3200      95
159.3400      80
159.3600      89
159.3800     102
159.4000      90
159.4200      74
159.4400      89
159.4600     112
159.4800     107
159.5000      93
159.5200      92
159.5400      92
159.5600      67
159.5800      45
159.6000      85
159.6200     137
159.6400     127
159.6600      99
159.6800      98
159.7000     108
159.7200     123
159.7400     134
159.7600     120
159.7800      98
159.8000      88
159.8200      80
159.8400      63
159.8600      46
159.8800      44
159.9000      50
159.9200      66
159.9400      86
159.9600     106
159.9800     120
160.0000      99
160.0200      76
160.0400     105
160.0600     145
160.0800     136
160.1000     108
160.1200      79
160.1400      53
160.1600      47
160.1800      50
160.2000      59
160.2200      72
160.2400      90
160.2600     105
160.2800      92
160.3000      74
160.3200      84
160.3400     106
160.3600     126
160.3800     145
160.4000     158
160.4200     162
160.4400     136
160.4600     104
160.4800     102
160.5000     109
160.5200     101
160.5400      92
160.5600     109
160.5800     130
160.6000     111
160.6200      81
160.6400      71
160.6600      73
160.6800      93
160.7000     116
160.7200     109
160.7400      91
160.7600      71
160.7800      55
160.8000      59
160.8200      74
160.8400     104
160.8600     132
160.8800     115
160.9000      85
160.9200      73
160.9400      74
160.9600      99
160.9800     132
161.0000     165
161.0200     186
161.0400     154
161.0600     105
161.0800      82
161.1000      70
161.1200      53
161.1400      39
161.1600      43
161.1800      56
161.2000      73
161.2200      90
161.2400     107
161.2600     118
161.2800     106
161.3000      86
161.3200      76
161.3400      69
161.3600      60
161.3800      57
161.4000      89
161.4200     128
161.4400     129
161.4600     113
161.4800      87
161.5000      64
161.5200      79
161.5400     105
161.5600     109
161.5800     105
161.6000      96
161.6200      89
161.6400      97
161.6600     108
161.6800     101
161.7000      89
161.7200      90
161.7400      95
161.7600      93
161.7800      89
161.8000      82
161.8200      71
161.8400      43
161.8600      15
161.8800      14
161.9000      24
161.9200      39
161.9400      54
161.9600      62
161.9800      67