File: XRD_Tool/XRD_Tool/bin/Debug/LDA_sample_name_56789_Psi-24_20180623-125814.txt
138.0000     136
138.0200     158
138.0400     160
138.0600     149
138.0800     116
138.1000      81
138.1200      81
138.1400      99
138.1600     132
138.1800     162
138.2000     139
138.2200      99
138.2400      84
138.2600      80
138.2800      89
138.3000     102
138.3200     105
138.3400     108
138.3600     124
138.3800     142
138.4000     135
138.4200     118
138.4400      96
138.4600      77
138.4800      85
138.5000      99
138.5200      93
138.5400      85
138.5600     110
138.5800     138
138.6000     115
138.6200      81
138.6400      97
138.6600     125
138.6800     118
138.7000      99
138.7200      98
138.7400     102
138.7600      91
138.7800      80
138.8000      91
138.8200     107
138.8400     108
138.8600     101
138.8800      91
138.9000      84
138.9200     107
138.9400     131
138.9600     105
138.9800      69
139.0000      83
139.0200     111
139.0400     107
139.0600      95
139.0800     105
139.1000     118
139.1200     109
139.1400      94
139.1600      94
139.1800     100
139.2000     105
139.2200     107
139.2400     102
139.2600      94
139.2800      86
139.3000      83
139.3200     102
139.3400     120
139.3600      89
139.3800      48
139.4000      49
139.4200      69
139.4400     102
139.4600     131
139.4800     112
139.5000      78
139.5200      64
139.5400      59
139.5600      61
139.5800      64
139.6000      62
139.6200      63
139.6400      92
139.6600     126
139.6800     132
139.7000     127
139.7200     130
139.7400     132
139.7600     109
139.7800      79
139.8000      56
139.8200      45
139.8400      82
139.8600     128
139.8800     122
139.9000      98
139.9200      84
139.9400      74
139.9600      63
139.9800      55
140.0000      68
140.0200      90
140.0400     107
140.0600     118
140.0800     101
140.1000      79
140.1200      88
140.1400     105
140.1600      97
140.1800      85
140.2000     103
140.2200     128
140.2400     123
140.2600     107
140.2800      93
140.3000      84
140.3200     100
140.3400     119
140.3600     101
140.3800      73
140.4000      65
140.4200      64
140.4400      56
140.4600      50
140.4800      59
140.5000      76
140.5200      95
140.5400     109
140.5600      93
140.5800      72
140.6000      89
140.6200     117
140.6400     123
140.6600     123
140.6800     128
140.7000     139
140.7200     163
140.7400     182
140.7600     146
140.7800      95
140.8000      74
140.8200      68
140.8400      72
140.8600      81
140.8800      93
140.9000     107
140.9200     116
140.9400     126
140.9600     143
140.9800     161
141.0000     172
141.0200     174
141.0400     148
141.0600     116
141.0800     116
141.1000     125
141.1200     119
141.1400     109
141.1600     112
141.1800     119
141.2000     118
141.2200     112
141.2400      96
141.2600      83
141.2800     110
141.3000     139
141.3200     105
141.3400      58
141.3600      76
141.3800     114
141.4000     122
141.4200     120
141.4400     131
141.4600     142
141.4800     130
141.5000     111
141.5200     105
141.5400     107
141.5600     116
141.5800     124
141.6000     113
141.6200      99
141.6400     100
141.6600     107
141.6800     109
141.7000     106
141.7200      88
141.7400      71
141.7600      87
141.7800     113
141.8000     118
141.8200     114
141.8400     115
141.8600     118
141.8800     129
141.9000     140
141.9200     136
141.9400     124
141.9600     101
141.9800      79
142.0000      88
142.0200     103
142.0400      82
142.0600      54
142.0800      66
142.1000      87
142.1200      74
142.1400      59
142.1600      99
142.1800     150
142.2000     146
142.2200     124
142.2400     117
142.2600     121
142.2800     145
142.3000     168
142.3200     146
142.3400     114
142.3600     120
142.3800     134
142.4000     103
142.4200      64
142.4400      67
142.4600      88
142.4800     114
142.5000     134
142.5200     117
142.5400      91
142.5600      97
142.5800     116
142.6000     140
142.6200     159
142.6400     141
142.6600     116
142.6800     123
142.7000     137
142.7200     126
142.7400     106
142.7600      98
142.7800      96
142.8000     105
142.8200     114
142.8400      97
142.8600      77
142.8800      98
142.9000     129
142.9200     125
142.9400     104
142.9600      68
142.9800      38
143.0000      63
143.0200     100
143.0400      84
143.0600      55
143.0800      71
143.1000     102
143.1200     120
143.1400     128
143.1600     121
143.1800     102
143.2000      61
143.2200      23
143.2400      44
143.2600      81
143.2800      88
143.3000      83
143.3200      86
143.3400      93
143.3600     102
143.3800     111
143.4000     117
143.4200     119
143.4400     116
143.4600     110
143.4800     102
143.5000      94
143.5200      88
143.5400      87
143.5600     113
143.5800     140
143.6000     127
143.6200     102
143.6400     102
143.6600     110
143.6800     106
143.7000      98
143.7200      88
143.7400      77
143.7600      60
143.7800      45
143.8000      55
143.8200      77
143.8400     114
143.8600     145
143.8800     119
143.9000      78
143.9200      70
143.9400      74
143.9600      65
143.9800      53
144.0000      49
144.0200      51
144.0400      65
144.0600      82
144.0800      96
144.1000     105
144.1200     104
144.1400     101
144.1600     111
144.1800     124
144.2000     119
144.2200     108
144.2400     103
144.2600     102
144.2800     103
144.3000     103
144.3200      95
144.3400      83
144.3600      74
144.3800      66
144.4000      58
144.4200      53
144.4400      61
144.4600      77
144.4800     102
144.5000     124
144.5200     121
144.5400     108
144.5600     100
144.5800      94
144.6000      91
144.6200      88
144.6400      79
144.6600      69
144.6800      74
144.7000      82
144.7200      80
144.7400      74
144.7600      68
144.7800      62
144.8000      59
144.8200      61
144.8400      83
144.8600     106
144.8800      89
144.9000      62
144.9200      57
144.9400      67
144.9600     112
144.9800     158
145.0000     146
145.0200     111
145.0400      84
145.0600      63
145.0800      57
145.1000      60
145.1200      75
145.1400      93
145.1600     102
145.1800     105
145.2000      90
145.2200      72
145.2400      74
145.2600      82
145.2800      78
145.3000      71
145.3200      67
145.3400      68
145.3600      79
145.3800      95
145.4000     108
145.4200     117
145.4400     114
145.4600     105
145.4800      91
145.5000      80
145.5200      94
145.5400     114
145.5600     114
145.5800     109
145.6000     116
145.6200     123
145.6400     105
145.6600      81
145.6800      78
145.7000      81
145.7200      66
145.7400      50
145.7600      67
145.7800      90
145.8000      75
145.8200      50
145.8400      48
145.8600      58
145.8800      75
145.9000      92
145.9200      97
145.9400      97
145.9600      95
145.9800      95
146.0000     105
146.0200     115
146.0400     104
146.0600      86
146.0800      78
146.1000      74
146.1200      71
146.1400      69
146.1600      62
146.1800      57
146.2000      64
146.2200      78
146.2400     105
146.2600     131
146.2800     125
146.3000     114
146.3200     137
146.3400     162
146.3600     137
146.3800      93
146.4000      62
146.4200      40
146.4400      35
146.4600      41
146.4800      70
146.5000     105
146.5200     122
146.5400     127
146.5600     109
146.5800      84
146.6000      75
146.6200      76
146.6400      87
146.6600     103
146.6800     117
146.7000     129
146.7200     130
146.7400     126
146.7600     123
146.7800     120
146.8000     111
146.8200     101
146.8400     106
146.8600     114
146.8800     110
146.9000     103
146.9200      99
146.9400      96
146.9600      83
146.9800      67
147.0000      53
147.0200      45
147.0400      65
147.0600      93
147.0800     103
147.1000     108
147.1200     128
147.1400     145
147.1600     117
147.1800      79
147.2000      79
147.2200      94
147.2400     101
147.2600     105
147.2800     112
147.3000     116
147.3200     102
147.3400      82
147.3600      74
147.3800      70
147.4000      66
147.4200      60
147.4400      44
147.4600      31
147.4800      58
147.5000      92
147.5200      89
147.5400      76
147.5600      83
147.5800     101
147.6000     126
147.6200     147
147.6400     138
147.6600     118
147.6800     111
147.7000     108
147.7200      99
147.7400      85
147.7600      61
147.7800      34
147.8000      17
147.8200       8
147.8400      27
147.8600      56
147.8800      80
147.9000      97
147.9200      89
147.9400      73
147.9600      62
147.9800      58
148.0000      71
148.0200      88
148.0400      95
148.0600      96
148.0800      92
148.1000      87
148.1200      90
148.1400      93
148.1600      78
148.1800      56
148.2000      36
148.2200      25
148.2400      64
148.2600     112
148.2800     112
148.3000      94
148.3200      91
148.3400      93
148.3600      97
148.3800      98
148.4000      84
148.4200      72
148.4400     100
148.4600     135
148.4800     130
148.5000     110
148.5200      98
148.5400      91
148.5600      91
148.5800      94
148.6000     104
148.6200     111
148.6400      93
148.6600      66
148.6800      45
148.7000      32
148.7200      43
148.7400      64
148.7600      95
148.7800     126
148.8000     140
148.8200     142
148.8400     112
148.8600      84
148.8800     123
148.9000     174
148.9200     148
148.9400     100
148.9600      92
148.9800      95
149.0000      73
149.0200      45
149.0400      37
149.0600      39
149.0800      53
149.1000      71
149.1200      87
149.1400     101
149.1600     102
149.1800      97
149.2000      92
149.2200      87
149.2400      89
149.2600      89
149.2800      72
149.3000      52
149.3200      49
149.3400      52
149.3600      50
149.3800      49
149.4000      66
149.4200      87
149.4400      93
149.4600      91
149.4800      77
149.5000      60
149.5200      47
149.5400      40
149.5600      61
149.5800      88
149.6000      90
149.6200      83
149.6400      81
149.6600      80
149.6800      71
149.7000      65
149.7200      90
149.7400     120
149.7600     107
149.7800      81
149.8000      73
149.8200      78
149.8400     105
149.8600     135
149.8800     136
149.9000     127
149.9200     120
149.9400     110
149.9600      83
149.9800      60
150.0000      92
150.0200     135
150.0400     118
150.0600      83
150.0800      71
150.1000      72
150.1200      85
150.1400      96
150.1600      74
150.1800      49
150.2000      79
150.2200     123
150.2400     127
150.2600     114
150.2800      96
150.3000      81
150.3200      91
150.3400     107
150.3600     106
150.3800      97
150.4000      80
150.4200      65
150.4400      75
150.4600      95
150.4800     118
150.5000     134
150.5200     112
150.5400      79
150.5600      71
150.5800      77
150.6000     105
150.6200     131
150.6400     112
150.6600      81
150.6800      85
150.7000     101
150.7200     107
150.7400     103
150.7600      67
150.7800      32
150.8000      62
150.8200     108
150.8400     102
150.8600      82
150.8800      89
150.9000     105
150.9200     111
150.9400     112
150.9600     108
150.9800     103
151.0000     106
151.0200     111
151.0400     106
151.0600     101
151.0800     111
151.1000     120
151.1200      91
151.1400      53
151.1600      48
151.1800      58
151.2000      80
151.2200     101
151.2400      99
151.2600      87
151.2800      78
151.3000      77
151.3200     108
151.3400     144
151.3600     143
151.3800     124
151.4000      87
151.4200      53
151.4400      70
151.4600     102
151.4800     103
151.5000      93
151.5200      93
151.5400      96
151.5600      94
151.5800      89
151.6000      84
151.6200      81
151.6400      95
151.6600     110
151.6800     101
151.7000      87
151.7200      90
151.7400      96
151.7600      80
151.7800      61
151.8000      67
151.8200      79
151.8400      71
151.8600      59
151.8800      69
151.9000      83
151.9200      79
151.9400      72
151.9600      91
151.9800     116
152.0000     115
152.0200     102
152.0400      89
152.0600      79
152.0800      92
152.1000     111
152.1200     114
152.1400     110
152.1600     107
152.1800     106
152.2000     107
152.2200     108
152.2400     107
152.2600     107
152.2800     116
152.3000     120
152.3200      84
152.3400      43
152.3600      62
152.3800      97
152.4000     100
152.4200      92
152.4400      91
152.4600      90
152.4800      74
152.5000      54
152.5200      47
152.5400      48
152.5600      63
152.5800      79
152.6000      80
152.6200      77
152.6400      87
152.6600      98
152.6800      86
152.7000      69
152.7200      80
152.7400      95
152.7600      74
152.7800      47
152.8000      65
152.8200      97
152.8400     112
152.8600     115
152.8800      95
152.9000      72
152.9200      82
152.9400     103
152.9600     106
152.9800     101
153.0000      94
153.0200      87
153.0400      82
153.0600      80
153.0800      89
153.1000     102
153.1200     105
153.1400     104
153.1600     100
153.1800      98
153.2000     114
153.2200     131
153.2400     115
153.2600      88
153.2800      74
153.3000      72
153.3200      97
153.3400     124
153.3600     111
153.3800      85
153.4000      81
153.4200      85
153.4400      90
153.4600      98
153.4800     115
153.5000     132
153.5200     137
153.5400     132
153.5600     104
153.5800      70
153.6000      56
153.6200      54
153.6400      74
153.6600      98
153.6800     103
153.7000     100
153.7200      87
153.7400      76
153.7600      88
153.7800     106
153.8000     101
153.8200      87
153.8400      75
153.8600      64
153.8800      61
153.9000      64
153.9200      84
153.9400     107
153.9600     115
153.9800     114
154.0000     100
154.0200      86
154.0400     105
154.0600     126
154.0800      94
154.1000      48
154.1200      40
154.1400      50
154.1600      68
154.1800      88
154.2000      97
154.2200     101
154.2400     108
154.2600     109
154.2800      73
154.3000      35
154.3200      56
154.3400      92
154.3600      89
154.3800      74
154.4000      71
154.4200      73
154.4400      75
154.4600      78
154.4800      84
154.5000      89
154.5200      79
154.5400      69
154.5600      89
154.5800     113
154.6000      94
154.6200      66
154.6400      79
154.6600      98
154.6800      61
154.7000      13
154.7200      26
154.7400      63
154.7600      90
154.7800     108
154.8000      96
154.8200      78
154.8400      87
154.8600     106
154.8800     123
154.9000     130
154.9200      94
154.9400      47
154.9600      35
154.9800      38
155.0000      46
155.0200      56
155.0400      66
155.0600      79
155.0800     107
155.1000     134
155.1200     129
155.1400     107
155.1600      65
155.1800      25
155.2000      35
155.2200      61
155.2400      62
155.2600      56
155.2800      57
155.3000      63
155.3200      84
155.3400     105
155.3600     104
155.3800      93
155.4000      72
155.4200      54
155.4400      66
155.4600      85
155.4800      81
155.5000      70
155.5200      72
155.5400      81
155.5600      92
155.5800     101
155.6000      95
155.6200      85
155.6400      86
155.6600      92
155.6800      97
155.7000      97
155.7200      82
155.7400      65
155.7600      75
155.7800      92
155.8000      94
155.8200      91
155.8400      96
155.8600      99
155.8800      74
155.9000      44
155.9200      47
155.9400      62
155.9600      72
155.9800      78
156.0000      74
156.0200      70
156.0400      84
156.0600      99
156.0800      78
156.1000      45
156.1200      30
156.1400      24
156.1600      28
156.1800      36
156.2000      42
156.2200      50
156.2400      63
156.2600      76
156.2800      71
156.3000      66
156.3200      96
156.3400     128
156.3600     105
156.3800      63
156.4000      43
156.4200      35
156.4400      52
156.4600      78
156.4800     104
156.5000     124
156.5200     114
156.5400      92
156.5600      72
156.5800      59
156.6000      82
156.6200     113
156.6400     108
156.6600      88
156.6800      71
156.7000      56
156.7200      43
156.7400      36
156.7600      55
156.7800      78
156.8000      63
156.8200      40
156.8400      50
156.8600      69
156.8800      65
156.9000      51
156.9200      39
156.9400      33
156.9600      62
156.9800      95
157.0000      81
157.0200      57
157.0400      70
157.0600      92
157.0800      85
157.1000      71
157.1200      72
157.1400      75
157.1600      51
157.1800      21
157.2000      10
157.2200      11
157.2400      37
157.2600      64
157.2800      51
157.3000      29
157.3200      45
157.3400      73
157.3600      79
157.3800      78
157.4000      82
157.4200      84
157.4400      61
157.4600      32
157.4800      18
157.5000      13
157.5200      25
157.5400      45
157.5600      78
157.5800     106
157.6000      83
157.6200      47
157.6400      52
157.6600      79
157.6800     130
157.7000     171
157.7200     120
157.7400      48
157.7600      56
157.7800      92
157.8000     105
157.8200     108
157.8400     106
157.8600      99
157.8800      82
157.9000      64
157.9200      64
157.9400      72
157.9600      82
157.9800      92
158.0000     100
158.0200     103
158.0400      78
158.0600      47
158.0800      44
158.1000      54
158.1200      71
158.1400      88
158.1600      90
158.1800      84
158.2000      73
158.2200      60
158.2400      55
158.2600      55
158.2800      60
158.3000      62
158.3200      32
158.3400       1
158.3600      25
158.3800      66
158.4000      77
158.4200      77
158.4400      75
158.4600      75
158.4800      80
158.5000      83
158.5200      58
158.5400      26
158.5600      15
158.5800      17
158.6000      39
158.6200      66
158.6400      77
158.6600      80
158.6800      79
158.7000      77
158.7200      75
158.7400      69
158.7600      43
158.7800      17
158.8000      28
158.8200      53
158.8400      73
158.8600      84
158.8800      60
158.9000      29
158.9200      33
158.9400      47
158.9600      44
158.9800      35
159.0000      30
159.0200      27
159.0400      30
159.0600      38
159.0800      55
159.1000      75
159.1200      96
159.1400     115
159.1600     116
159.1800     105
159.2000      72
159.2200      36
159.2400      27
159.2600      34
159.2800      68
159.3000     104
159.3200     103
159.3400      87
159.3600      73
159.3800      64
159.4000      78
159.4200      98
159.4400      95
159.4600      84
159.4800      81
159.5000      84
159.5200     100
159.5400     117
159.5600     106
159.5800      89
159.6000      97
159.6200     108
159.6400      87
159.6600      53
159.6800      19
159.7000      -4
159.7200      20
159.7400      60
159.7600      81
159.7800      90
159.8000      73
159.8200      53
159.8400      74
159.8600     104
159.8800      93
159.9000      70
159.9200      72
159.9400      78
159.9600      55
159.9800      26
160.0000      21
160.0200      26
160.0400      36
160.0600      43
160.0800      30
160.1000      15
160.1200      38
160.1400      69
160.1600      65
160.1800      54
160.2000      77
160.2200     107
160.2400     107
160.2600      96
160.2800      95
160.3000      94
160.3200      81
160.3400      63
160.3600      44
160.3800      31
160.4000      53
160.4200      85
160.4400      97
160.4600     101
160.4800     110
160.5000     117
160.5200     107
160.5400      92
160.5600      79
160.5800      71
160.6000      86
160.6200     104
160.6400      94
160.6600      74
160.6800      67
160.7000      66
160.7200      65
160.7400      67
160.7600      79
160.7800      89
160.8000      71
160.8200      49
160.8400      65
160.8600      93
160.8800     101
160.9000      97
160.9200      73
160.9400      45
160.9600      35
160.9800      34
161.0000      37
161.0200      41
161.0400      50
161.0600      57
161.0800      49
161.1000      39
161.1200      52
161.1400      70
161.1600      63
161.1800      48
161.2000      38
161.2200      33
161.2400      45
161.2600      62
161.2800      77
161.3000      86
161.3200      67
161.3400      44
161.3600      54
161.3800      72
161.4000      60
161.4200      41
161.4400      44
161.4600      52
161.4800      43
161.5000      30
161.5200      34
161.5400      42
161.5600      40
161.5800      38
161.6000      56
161.6200      79
161.6400      90
161.6600      91
161.6800      62
161.7000      27
161.7200      15
161.7400      16
161.7600      31
161.7800      48
161.8000      55
161.8200      60
161.8400      78
161.8600      96
161.8800      86
161.9000      68
161.9200      72
161.9400      78
161.9600      59
161.9800      32