File: XRD_Tool/XRD_Tool/bin/Debug/LDA_sample_name_56789_Psi-33_20180603-095438.txt
155.0000   13330
155.0400   13330
155.0800   13330
155.1200   13330
155.1600   13330
155.2000   13330
155.2400   13330
155.2800   13330
155.3200   13330
155.3600   13330
155.4000   13330
155.4400   13330
155.4800   13330
155.5200   13330
155.5600   13330
155.6000   13330
155.6400   13330
155.6800   13330
155.7200   13330
155.7600   13330
155.8000   13330
155.8400   13330
155.8800   13330
155.9200   13330
155.9600   13330
156.0000   13330
156.0400   13330
156.0800   13330
156.1200   13330
156.1600   13330
156.2000   13330
156.2400   13330
156.2800   13330
156.3200   13330
156.3600   13330
156.4000   13330
156.4400   13330
156.4800   13330
156.5200   13330
156.5600   13330
156.6000   13330
156.6400   13330
156.6800   13330
156.7200   13330
156.7600   13330
156.8000   13330
156.8400   13330
156.8800   13330
156.9200   13330
156.9600   13330
157.0000   13330
157.0400   13330
157.0800   13330
157.1200   13330
157.1600   13330
157.2000   13330
157.2400   13330
157.2800   13330
157.3200   13330
157.3600   13330
157.4000   13330
157.4400   13330
157.4800   13330
157.5200   13330
157.5600   13330
157.6000   13330
157.6400   13330
157.6800   13330
157.7200   13330
157.7600   13330
157.8000   13330
157.8400   13330
157.8800   13330
157.9200   13330
157.9600   13330
158.0000   13330
158.0400   13330
158.0800   13330
158.1200   13330
158.1600   13330
158.2000   13330
158.2400   13330
158.2800   13330
158.3200   13330
158.3600   13330
158.4000   13330
158.4400   13330
158.4800   13330
158.5200   13330
158.5600   13330
158.6000   13330
158.6400   13330
158.6800   13330
158.7200   13330
158.7600   13330
158.8000   13330
158.8400   13330
158.8800   13330
158.9200   13330
158.9600   13330
159.0000   13330
159.0400   13330
159.0800   13330
159.1200   13330
159.1600   13330
159.2000   13330
159.2400   13330
159.2800   13330
159.3200   13330
159.3600   13330
159.4000   13330
159.4400   13330
159.4800   13330
159.5200   13330
159.5600   13330
159.6000   13330
159.6400   13330
159.6800   13330
159.7200   13330
159.7600   13330
159.8000   13330
159.8400   13330
159.8800   13330
159.9200   13330
159.9600   13330
160.0000   13330
160.0400   13330
160.0800   13330
160.1200   13330
160.1600   13330
160.2000   13330
160.2400   13330
160.2800   13330
160.3200   13330
160.3600   13330
160.4000   13330
160.4400   13330
160.4800   13330
160.5200   13330
160.5600   13330
160.6000   13330
160.6400   13330
160.6800   13330
160.7200   13330
160.7600   13330
160.8000   13330
160.8400   13330
160.8800   13330
160.9200   13330
160.9600   13330
161.0000   13330
161.0400   13330
161.0800   13330
161.1200   13330
161.1600   13330
161.2000   13330
161.2400   13330
161.2800   13330
161.3200   13330
161.3600   13330
161.4000   13330
161.4400   13330
161.4800   13330
161.5200   13330
161.5600   13330
161.6000   13330
161.6400   13330
161.6800   13330
161.7200   13330
161.7600   13330
161.8000   13330
161.8400   13330
161.8800   13330
161.9200   13330
161.9600   13330
162.0000   13330
162.0400   13330
162.0800   13330
162.1200   13330
162.1600   13330
162.2000   13330
162.2400   13330
162.2800   13330
162.3200   13330
162.3600   13330
162.4000   13330
162.4400   13330
162.4800   13330
162.5200   13330
162.5600   13330
162.6000   13330
162.6400   13330
162.6800   13330
162.7200   13330
162.7600   13330
162.8000   13330
162.8400   13330
162.8800   13330
162.9200   13330
162.9600   13330
163.0000   13330
163.0400   13330
163.0800   13330
163.1200   13330
163.1600   13330
163.2000   13330
163.2400   13330
163.2800   13330
163.3200   13330
163.3600   13330
163.4000   13330
163.4400   13330
163.4800   13330
163.5200   13330
163.5600   13330
163.6000   13330
163.6400   13330
163.6800   13330
163.7200   13330
163.7600   13330
163.8000   13330
163.8400   13330
163.8800   13330
163.9200   13330
163.9600   13330
164.0000   13330
164.0400   13330
164.0800   13330
164.1200   13330
164.1600   13330
164.2000   13330
164.2400   13330
164.2800   13330
164.3200   13330
164.3600   13330
164.4000   13330
164.4400   13330
164.4800   13330
164.5200   13330
164.5600   13330
164.6000   13330
164.6400   13330
164.6800   13330
164.7200   13330
164.7600   13330
164.8000   13330
164.8400   13330
164.8800   13330
164.9200   13330
164.9600   13330
165.0000   13330
165.0400   13330
165.0800   13330
165.1200   13330
165.1600   13330
165.2000   13330
165.2400   13330
165.2800   13330
165.3200   13330
165.3600   13330
165.4000   13330
165.4400   13330
165.4800   13330
165.5200   13330
165.5600   13330
165.6000   13330
165.6400   13330
165.6800   13330
165.7200   13330
165.7600   13330
165.8000   13330
165.8400   13330
165.8800   13330
165.9200   13330
165.9600   13330
166.0000   13330
166.0400   13330
166.0800   13330
166.1200   13330
166.1600   13330
166.2000   13330
166.2400   13330
166.2800   13330
166.3200   13330
166.3600   13330
166.4000   13330
166.4400   13330
166.4800   13330
166.5200   13330
166.5600   13330
166.6000   13330
166.6400   13330
166.6800   13330
166.7200   13330
166.7600   13330
166.8000   13330
166.8400   13330
166.8800   13330
166.9200   13330
166.9600   13330
167.0000   13330
167.0400   13330
167.0800   13330
167.1200   13330
167.1600   13330
167.2000   13330
167.2400   13330
167.2800   13330
167.3200   13330
167.3600   13330
167.4000   13330
167.4400   13330
167.4800   13330
167.5200   13330
167.5600   13330
167.6000   13330
167.6400   13330
167.6800   13330
167.7200   13330
167.7600   13330
167.8000   13330
167.8400   13330
167.8800   13330
167.9200   13330
167.9600   13330
168.0000   13330
168.0400   13330
168.0800   13330
168.1200   13330
168.1600   13330
168.2000   13330
168.2400   13330
168.2800   13330
168.3200   13330
168.3600   13330
168.4000   13330
168.4400   13330
168.4800   13330
168.5200   13330
168.5600   13330
168.6000   13330
168.6400   13330
168.6800   13330
168.7200   13330
168.7600   13330
168.8000   13330
168.8400   13330
168.8800   13330
168.9200   13330
168.9600   13330
169.0000   13330
169.0400   13330
169.0800   13330
169.1200   13330
169.1600   13330
169.2000   13330
169.2400   13330
169.2800   13330
169.3200   13330
169.3600   13330
169.4000   13330
169.4400   13330
169.4800   13330
169.5200   13330
169.5600   13330
169.6000   13330
169.6400   13330
169.6800   13330
169.7200   13330
169.7600   13330
169.8000   13330
169.8400   13330
169.8800   13330
169.9200   13330
169.9600   13330
170.0000   13330
170.0400   13330
170.0800   13330
170.1200   13330
170.1600   13330
170.2000   13330
170.2400   13330
170.2800   13330
170.3200   13330
170.3600   13330
170.4000   13330
170.4400   13330
170.4800   13330
170.5200   13330
170.5600   13330
170.6000   13330
170.6400   13330
170.6800   13330
170.7200   13330
170.7600   13330
170.8000   13330
170.8400   13330
170.8800   13330
170.9200   13330
170.9600   13330
171.0000   13330
171.0400   13330
171.0800   13330
171.1200   13330
171.1600   13330
171.2000   13330
171.2400   13330
171.2800   13330
171.3200   13330
171.3600   13330
171.4000   13330
171.4400   13330
171.4800   13330
171.5200   13330
171.5600   13330
171.6000   13330
171.6400   13330
171.6800   13330
171.7200   13330
171.7600   13330
171.8000   13330
171.8400   13330
171.8800   13330
171.9200   13330
171.9600   13330
172.0000   13330
172.0400   13330
172.0800   13330
172.1200   13330
172.1600   13330
172.2000   13330
172.2400   13330
172.2800   13330
172.3200   13330
172.3600   13330
172.4000   13330
172.4400   13330
172.4800   13330
172.5200   13330
172.5600   13330
172.6000   13330
172.6400   13330
172.6800   13330
172.7200   13330
172.7600   13330
172.8000   13330
172.8400   13330
172.8800   13330
172.9200   13330
172.9600   13330
173.0000   13330
173.0400   13330
173.0800   13330
173.1200   13330
173.1600   13330
173.2000   13330
173.2400   13330
173.2800   13330
173.3200   13330
173.3600   13330
173.4000   13330
173.4400   13330
173.4800   13330
173.5200   13330
173.5600   13330
173.6000   13330
173.6400   13330
173.6800   13330
173.7200   13330
173.7600   13330
173.8000   13330
173.8400   13330
173.8800   13330
173.9200   13330
173.9600   13330
174.0000   13330
174.0400   13330
174.0800   13330
174.1200   13330
174.1600   13330
174.2000   13330
174.2400   13330
174.2800   13330
174.3200   13330
174.3600   13330
174.4000   13330
174.4400   13330
174.4800   13330
174.5200   13330
174.5600   13330
174.6000   13330
174.6400   13330
174.6800   13330
174.7200   13330
174.7600   13330
174.8000   13330
174.8400   13330
174.8800   13330
174.9200   13330
174.9600   13330
175.0000   13330
175.0400   13330
175.0800   13330
175.1200   13330
175.1600   13330
175.2000   13330
175.2400   13330
175.2800   13330
175.3200   13330
175.3600   13330
175.4000   13330
175.4400   13330
175.4800   13330
175.5200   13330
175.5600   13330
175.6000   13330
175.6400   13330
175.6800   13330
175.7200   13330
175.7600   13330
175.8000   13330
175.8400   13330
175.8800   13330
175.9200   13330
175.9600   13330
176.0000   13330
176.0400   13330
176.0800   13330
176.1200   13330
176.1600   13330
176.2000   13330
176.2400   13330
176.2800   13330
176.3200   13330
176.3600   13330
176.4000   13330
176.4400   13330
176.4800   13330
176.5200   13330
176.5600   13330
176.6000   13330
176.6400   13330
176.6800   13330
176.7200   13330
176.7600   13330
176.8000   13330
176.8400   13330
176.8800   13330
176.9200   13330
176.9600   13330
177.0000   13330
177.0400   13330
177.0800   13330
177.1200   13330
177.1600   13330
177.2000   13330
177.2400   13330
177.2800   13330
177.3200   13330
177.3600   13330
177.4000   13330
177.4400   13330
177.4800   13330
177.5200   13330
177.5600   13330
177.6000   13330
177.6400   13330
177.6800   13330
177.7200   13330
177.7600   13330
177.8000   13330
177.8400   13330
177.8800   13330
177.9200   13330
177.9600   13330
178.0000   13330
178.0400   13330
178.0800   13330
178.1200   13330
178.1600   13330
178.2000   13330
178.2400   13330
178.2800   13330
178.3200   13330
178.3600   13330
178.4000   13330
178.4400   13330
178.4800   13330
178.5200   13330
178.5600   13330
178.6000   13330
178.6400   13330
178.6800   13330
178.7200   13330
178.7600   13330
178.8000   13330
178.8400   13330
178.8800   13330
178.9200   13330
178.9600   13330
179.0000   13330
179.0400   13330
179.0800   13330
179.1200   13330
179.1600   13330
179.2000   13330
179.2400   13330
179.2800   13330
179.3200   13330
179.3600   13330
179.4000   13330
179.4400   13330
179.4800   13330
179.5200   13330
179.5600   13330
179.6000   13330
179.6400   13330
179.6800   13330
179.7200   13330
179.7600   13330
179.8000   13330
179.8400   13330
179.8800   13330
179.9200   13330
179.9600   13330
180.0000   13330
180.0400   13330
180.0800   13330
180.1200   13330
180.1600   13330
180.2000   13330
180.2400   13330
180.2800   13330
180.3200   13330
180.3600   13330
180.4000   13330
180.4400   13330
180.4800   13330
180.5200   13330
180.5600   13330