File: XRD_Tool/XRD_Tool/bin/Debug/LDA_sample_name_56789_Psi-24_20180623-125435.txt
138.0000     216
138.0200     216
138.0400     241
138.0600     271
138.0800     283
138.1000     282
138.1200     257
138.1400     233
138.1600     254
138.1800     277
138.2000     212
138.2200     131
138.2400     145
138.2600     187
138.2800     184
138.3000     172
138.3200     208
138.3400     255
138.3600     257
138.3800     239
138.4000     208
138.4200     180
138.4400     192
138.4600     221
138.4800     256
138.5000     286
138.5200     273
138.5400     253
138.5600     285
138.5800     319
138.6000     268
138.6200     194
138.6400     178
138.6600     191
138.6800     231
138.7000     266
138.7200     229
138.7400     175
138.7600     181
138.7800     210
138.8000     233
138.8200     255
138.8400     290
138.8600     318
138.8800     286
138.9000     236
138.9200     214
138.9400     210
138.9600     233
138.9800     255
139.0000     215
139.0200     159
139.0400     140
139.0600     148
139.0800     217
139.1000     299
139.1200     316
139.1400     307
139.1600     290
139.1800     280
139.2000     320
139.2200     360
139.2400     300
139.2600     219
139.2800     236
139.3000     277
139.3200     243
139.3400     195
139.3600     227
139.3800     280
139.4000     278
139.4200     261
139.4400     279
139.4600     303
139.4800     289
139.5000     257
139.5200     213
139.5400     164
139.5600     107
139.5800      67
139.6000     127
139.6200     208
139.6400     197
139.6600     163
139.6800     201
139.7000     255
139.7200     251
139.7400     228
139.7600     235
139.7800     240
139.8000     180
139.8200     115
139.8400     158
139.8600     238
139.8800     285
139.9000     309
139.9200     286
139.9400     244
139.9600     202
139.9800     173
140.0000     204
140.0200     247
140.0400     222
140.0600     180
140.0800     191
140.1000     215
140.1200     197
140.1400     178
140.1600     229
140.1800     296
140.2000     295
140.2200     267
140.2400     240
140.2600     217
140.2800     204
140.3000     198
140.3200     199
140.3400     210
140.3600     261
140.3800     319
140.4000     340
140.4200     344
140.4400     338
140.4600     320
140.4800     259
140.5000     194
140.5200     192
140.5400     213
140.5600     219
140.5800     225
140.6000     261
140.6200     303
140.6400     313
140.6600     306
140.6800     273
140.7000     230
140.7200     192
140.7400     162
140.7600     165
140.7800     177
140.8000     167
140.8200     158
140.8400     193
140.8600     233
140.8800     213
140.9000     179
140.9200     196
140.9400     232
140.9600     253
140.9800     267
141.0000     273
141.0200     277
141.0400     289
141.0600     295
141.0800     249
141.1000     196
141.1200     208
141.1400     239
141.1600     230
141.1800     203
141.2000     158
141.2200     127
141.2400     206
141.2600     302
141.2800     270
141.3000     194
141.3200     158
141.3400     147
141.3600     184
141.3800     228
141.4000     212
141.4200     188
141.4400     241
141.4600     312
141.4800     318
141.5000     303
141.5200     316
141.5400     335
141.5600     327
141.5800     307
141.6000     276
141.6200     238
141.6400     190
141.6600     157
141.6800     222
141.7000     304
141.7200     274
141.7400     217
141.7600     244
141.7800     295
141.8000     301
141.8200     293
141.8400     305
141.8600     313
141.8800     262
141.9000     201
141.9200     200
141.9400     220
141.9600     220
141.9800     220
142.0000     262
142.0200     306
142.0400     283
142.0600     241
142.0800     238
142.1000     246
142.1200     235
142.1400     218
142.1600     206
142.1800     193
142.2000     165
142.2200     139
142.2400     148
142.2600     171
142.2800     187
142.3000     206
142.3200     247
142.3400     287
142.3600     277
142.3800     254
142.4000     264
142.4200     285
142.4400     288
142.4600     290
142.4800     325
142.5000     361
142.5200     339
142.5400     295
142.5600     264
142.5800     241
142.6000     230
142.6200     232
142.6400     277
142.6600     330
142.6800     335
142.7000     320
142.7200     298
142.7400     278
142.7600     276
142.7800     281
142.8000     278
142.8200     275
142.8400     289
142.8600     300
142.8800     267
142.9000     238
142.9200     313
142.9400     408
142.9600     398
142.9800     345
143.0000     292
143.0200     249
143.0400     263
143.0600     294
143.0800     303
143.1000     298
143.1200     268
143.1400     244
143.1600     300
143.1800     370
143.2000     348
143.2200     303
143.2400     323
143.2600     354
143.2800     305
143.3000     236
143.3200     220
143.3400     231
143.3600     267
143.3800     308
143.4000     321
143.4200     315
143.4400     272
143.4600     228
143.4800     251
143.5000     290
143.5200     272
143.5400     242
143.5600     262
143.5800     292
143.6000     269
143.6200     234
143.6400     245
143.6600     271
143.6800     276
143.7000     274
143.7200     287
143.7400     305
143.7600     321
143.7800     334
143.8000     334
143.8200     326
143.8400     311
143.8600     297
143.8800     300
143.9000     303
143.9200     273
143.9400     246
143.9600     309
143.9800     386
144.0000     361
144.0200     314
144.0400     359
144.0600     420
144.0800     379
144.1000     303
144.1200     257
144.1400     227
144.1600     214
144.1800     213
144.2000     237
144.2200     261
144.2400     238
144.2600     212
144.2800     266
144.3000     346
144.3200     391
144.3400     412
144.3600     375
144.3800     320
144.4000     293
144.4200     280
144.4400     282
144.4600     293
144.4800     319
144.5000     342
144.5200     317
144.5400     281
144.5600     286
144.5800     310
144.6000     341
144.6200     366
144.6400     348
144.6600     318
144.6800     319
144.7000     326
144.7200     295
144.7400     257
144.7600     259
144.7800     271
144.8000     251
144.8200     234
144.8400     290
144.8600     361
144.8800     354
144.9000     320
144.9200     306
144.9400     304
144.9600     324
144.9800     350
145.0000     367
145.0200     378
145.0400     371
145.0600     349
145.0800     289
145.1000     225
145.1200     221
145.1400     243
145.1600     276
145.1800     316
145.2000     363
145.2200     398
145.2400     358
145.2600     297
145.2800     279
145.3000     289
145.3200     347
145.3400     409
145.3600     386
145.3800     331
145.4000     281
145.4200     243
145.4400     253
145.4600     284
145.4800     320
145.5000     353
145.5200     358
145.5400     350
145.5600     335
145.5800     329
145.6000     380
145.6200     435
145.6400     398
145.6600     334
145.6800     320
145.7000     332
145.7200     371
145.7400     410
145.7600     394
145.7800     356
145.8000     320
145.8200     297
145.8400     340
145.8600     389
145.8800     333
145.9000     251
145.9200     244
145.9400     274
145.9600     334
145.9800     397
146.0000     415
146.0200     405
146.0400     347
146.0600     281
146.0800     275
146.1000     286
146.1200     264
146.1400     238
146.1600     267
146.1800     318
146.2000     377
146.2200     423
146.2400     384
146.2600     319
146.2800     287
146.3000     269
146.3200     251
146.3400     246
146.3600     305
146.3800     380
146.4000     410
146.4200     415
146.4400     390
146.4600     355
146.4800     335
146.5000     320
146.5200     298
146.5400     277
146.5600     273
146.5800     279
146.6000     305
146.6200     337
146.6400     361
146.6600     370
146.6800     329
146.7000     281
146.7200     303
146.7400     350
146.7600     380
146.7800     400
146.8000     402
146.8200     386
146.8400     322
146.8600     254
146.8800     271
146.9000     320
146.9200     367
146.9400     410
146.9600     438
146.9800     453
147.0000     432
147.0200     394
147.0400     349
147.0600     317
147.0800     365
147.1000     426
147.1200     394
147.1400     343
147.1600     390
147.1800     467
147.2000     498
147.2200     505
147.2400     488
147.2600     454
147.2800     379
147.3000     306
147.3200     329
147.3400     379
147.3600     368
147.3800     336
147.4000     324
147.4200     330
147.4400     387
147.4600     451
147.4800     445
147.5000     415
147.5200     404
147.5400     409
147.5600     460
147.5800     510
147.6000     459
147.6200     377
147.6400     346
147.6600     341
147.6800     358
147.7000     386
147.7200     427
147.7400     463
147.7600     444
147.7800     408
147.8000     394
147.8200     390
147.8400     396
147.8600     408
147.8800     428
147.9000     453
147.9200     485
147.9400     506
147.9600     460
147.9800     405
148.0000     432
148.0200     475
148.0400     433
148.0600     367
148.0800     351
148.1000     358
148.1200     381
148.1400     404
148.1600     392
148.1800     367
148.2000     344
148.2200     331
148.2400     365
148.2600     413
148.2800     444
148.3000     461
148.3200     443
148.3400     417
148.3600     423
148.3800     440
148.4000     455
148.4200     460
148.4400     420
148.4600     370
148.4800     360
148.5000     362
148.5200     343
148.5400     330
148.5600     393
148.5800     470
148.6000     461
148.6200     417
148.6400     378
148.6600     351
148.6800     377
148.7000     419
148.7200     429
148.7400     424
148.7600     404
148.7800     391
148.8000     442
148.8200     498
148.8400     457
148.8600     390
148.8800     388
148.9000     403
148.9200     370
148.9400     328
148.9600     336
148.9800     364
149.0000     393
149.0200     422
149.0400     445
149.0600     463
149.0800     471
149.1000     470
149.1200     447
149.1400     420
149.1600     415
149.1800     421
149.2000     440
149.2200     464
149.2400     485
149.2600     503
149.2800     512
149.3000     515
149.3200     503
149.3400     481
149.3600     438
149.3800     403
149.4000     458
149.4200     534
149.4400     540
149.4600     512
149.4800     457
149.5000     406
149.5200     425
149.5400     475
149.5600     537
149.5800     579
149.6000     501
149.6200     393
149.6400     377
149.6600     393
149.6800     392
149.7000     393
149.7200     441
149.7400     497
149.7600     503
149.7800     487
149.8000     463
149.8200     437
149.8400     426
149.8600     426
149.8800     459
149.9000     495
149.9200     480
149.9400     451
149.9600     458
149.9800     479
150.0000     494
150.0200     502
150.0400     493
150.0600     482
150.0800     496
150.1000     508
150.1200     462
150.1400     410
150.1600     450
150.1800     511
150.2000     502
150.2200     471
150.2400     477
150.2600     498
150.2800     527
150.3000     553
150.3200     551
150.3400     540
150.3600     542
150.3800     548
150.4000     544
150.4200     548
150.4400     612
150.4600     679
150.4800     638
150.5000     567
150.5200     564
150.5400     577
150.5600     535
150.5800     489
150.6000     531
150.6200     593
150.6400     570
150.6600     519
150.6800     491
150.7000     475
150.7200     466
150.7400     465
150.7600     489
150.7800     523
150.8000     559
150.8200     580
150.8400     526
150.8600     460
150.8800     484
150.9000     540
150.9200     577
150.9400     604
150.9600     613
150.9800     619
151.0000     647
151.0200     673
151.0400     652
151.0600     618
151.0800     611
151.1000     616
151.1200     627
151.1400     633
151.1600     594
151.1800     545
151.2000     528
151.2200     525
151.2400     527
151.2600     535
151.2800     564
151.3000     596
151.3200     598
151.3400     594
151.3600     619
151.3800     656
151.4000     699
151.4200     732
151.4400     699
151.4600     644
151.4800     617
151.5000     608
151.5200     631
151.5400     664
151.5600     682
151.5800     698
151.6000     735
151.6200     773
151.6400     771
151.6600     754
151.6800     742
151.7000     730
151.7200     708
151.7400     688
151.7600     695
151.7800     711
151.8000     717
151.8200     721
151.8400     735
151.8600     748
151.8800     738
151.9000     725
151.9200     752
151.9400     782
151.9600     752
151.9800     716
152.0000     770
152.0200     845
152.0400     843
152.0600     821
152.0800     849
152.1000     890
152.1200     898
152.1400     888
152.1600     858
152.1800     822
152.2000     794
152.2200     784
152.2400     844
152.2600     920
152.2800     934
152.3000     935
152.3200     986
152.3400    1039
152.3600     997
152.3800     924
152.4000     884
152.4200     876
152.4400     957
152.4600    1047
152.4800    1008
152.5000     941
152.5200     986
152.5400    1064
152.5600    1080
152.5800    1076
152.6000    1094
152.6200    1118
152.6400    1132
152.6600    1151
152.6800    1215
152.7000    1290
152.7200    1328
152.7400    1349
152.7600    1357
152.7800    1365
152.8000    1403
152.8200    1438
152.8400    1398
152.8600    1342
152.8800    1356
152.9000    1395
152.9200    1417
152.9400    1427
152.9600    1405
152.9800    1379
153.0000    1392
153.0200    1412
153.0400    1393
153.0600    1367
153.0800    1378
153.1000    1415
153.1200    1510
153.1400    1607
153.1600    1594
153.1800    1545
153.2000    1529
153.2200    1528
153.2400    1529
153.2600    1539
153.2800    1587
153.3000    1650
153.3200    1710
153.3400    1759
153.3600    1766
153.3800    1757
153.4000    1752
153.4200    1753
153.4400    1779
153.4600    1819
153.4800    1882
153.5000    1938
153.5200    1916
153.5400    1874
153.5600    1894
153.5800    1930
153.6000    1929
153.6200    1927
153.6400    1995
153.6600    2079
153.6800    2100
153.7000    2099
153.7200    2113
153.7400    2138
153.7600    2188
153.7800    2231
153.8000    2194
153.8200    2139
153.8400    2162
153.8600    2203
153.8800    2178
153.9000    2130
153.9200    2102
153.9400    2093
153.9600    2144
153.9800    2199
154.0000    2157
154.0200    2091
154.0400    2092
154.0600    2120
154.0800    2153
154.1000    2196
154.1200    2282
154.1400    2378
154.1600    2436
154.1800    2447
154.2000    2303
154.2200    2128
154.2400    2108
154.2600    2157
154.2800    2243
154.3000    2336
154.3200    2395
154.3400    2418
154.3600    2325
154.3800    2221
154.4000    2302
154.4200    2419
154.4400    2349
154.4600    2238
154.4800    2292
154.5000    2411
154.5200    2525
154.5400    2613
154.5600    2581
154.5800    2497
154.6000    2390
154.6200    2277
154.6400    2184
154.6600    2112
154.6800    2113
154.7000    2140
154.7200    2151
154.7400    2145
154.7600    2090
154.7800    2040
154.8000    2110
154.8200    2214
154.8400    2247
154.8600    2244
154.8800    2211
154.9000    2184
154.9200    2252
154.9400    2326
154.9600    2238
154.9800    2121
155.0000    2177
155.0200    2288
155.0400    2324
155.0600    2315
155.0800    2226
155.1000    2117
155.1200    2063
155.1400    2037
155.1600    2043
155.1800    2051
155.2000    2012
155.2200    1972
155.2400    2017
155.2600    2079
155.2800    2048
155.3000    1989
155.3200    1978
155.3400    1988
155.3600    2005
155.3800    1998
155.4000    1856
155.4200    1689
155.4400    1672
155.4600    1713
155.4800    1751
155.5000    1774
155.5200    1737
155.5400    1676
155.5600    1622
155.5800    1573
155.6000    1544
155.6200    1525
155.6400    1519
155.6600    1521
155.6800    1535
155.7000    1544
155.7200    1508
155.7400    1464
155.7600    1472
155.7800    1512
155.8000    1615
155.8200    1712
155.8400    1651
155.8600    1536
155.8800    1469
155.9000    1421
155.9200    1370
155.9400    1318
155.9600    1271
155.9800    1232
156.0000    1231
156.0200    1248
156.0400    1275
156.0600    1302
156.0800    1304
156.1000    1304
156.1200    1346
156.1400    1385
156.1600    1329
156.1800    1240
156.2000    1179
156.2200    1138
156.2400    1137
156.2600    1145
156.2800    1113
156.3000    1081
156.3200    1127
156.3400    1195
156.3600    1210
156.3800    1198
156.4000    1156
156.4200    1115
156.4400    1137
156.4600    1179
156.4800    1193
156.5000    1178
156.5200    1078
156.5400     975
156.5600    1025
156.5800    1115
156.6000    1093
156.6200    1029
156.6400     974
156.6600     935
156.6800     962
156.7000     995
156.7200     918
156.7400     825
156.7600     869
156.7800     954
156.8000     977
156.8200     969
156.8400     926
156.8600     891
156.8800     963
156.9000    1043
156.9200     951
156.9400     814
156.9600     794
156.9800     814
157.0000     806
157.0200     788
157.0400     781
157.0600     778
157.0800     770
157.1000     765
157.1200     784
157.1400     805
157.1600     792
157.1800     766
157.2000     739
157.2200     723
157.2400     768
157.2600     825
157.2800     816
157.3000     779
157.3200     740
157.3400     700
157.3600     657
157.3800     629
157.4000     682
157.4200     748
157.4400     709
157.4600     640
157.4800     626
157.5000     636
157.5200     658
157.5400     672
157.5600     626
157.5800     576
157.6000     628
157.6200     705
157.6400     710
157.6600     698
157.6800     743
157.7000     787
157.7200     714
157.7400     617
157.7600     632
157.7800     681
157.8000     676
157.8200     652
157.8400     635
157.8600     621
157.8800     607
157.9000     606
157.9200     670
157.9400     747
157.9600     757
157.9800     736
158.0000     692
158.0200     640
158.0400     596
158.0600     564
158.0800     570
158.1000     594
158.1200     628
158.1400     658
158.1600     645
158.1800     619
158.2000     616
158.2200     619
158.2400     606
158.2600     590
158.2800     595
158.3000     601
158.3200     564
158.3400     527
158.3600     577
158.3800     645
158.4000     636
158.4200     607
158.4400     630
158.4600     661
158.4800     630
158.5000     589
158.5200     621
158.5400     675
158.5600     686
158.5800     675
158.6000     641
158.6200     601
158.6400     586
158.6600     592
158.6800     656
158.7000     724
158.7200     689
158.7400     607
158.7600     498
158.7800     390
158.8000     344
158.8200     338
158.8400     414
158.8600     518
158.8800     602
158.9000     660
158.9200     631
158.9400     574
158.9600     554
158.9800     551
159.0000     565
159.0200     581
159.0400     577
159.0600     567
159.0800     567
159.1000     563
159.1200     520
159.1400     476
159.1600     497
159.1800     545
159.2000     595
159.2200     639
159.2400     651
159.2600     654
159.2800     672
159.3000     686
159.3200     652
159.3400     598
159.3600     547
159.3800     509
159.4000     530
159.4200     568
159.4400     581
159.4600     583
159.4800     587
159.5000     577
159.5200     498
159.5400     409
159.5600     402
159.5800     433
159.6000     491
159.6200     544
159.6400     523
159.6600     481
159.6800     479
159.7000     497
159.7200     534
159.7400     568
159.7600     555
159.7800     523
159.8000     489
159.8200     455
159.8400     418
159.8600     388
159.8800     396
159.9000     417
159.9200     420
159.9400     423
159.9600     464
159.9800     512
160.0000     517
160.0200     500
160.0400     461
160.0600     420
160.0800     414
160.1000     428
160.1200     470
160.1400     510
160.1600     477
160.1800     425
160.2000     425
160.2200     445
160.2400     465
160.2600     480
160.2800     475
160.3000     455
160.3200     407
160.3400     362
160.3600     392
160.3800     453
160.4000     520
160.4200     567
160.4400     498
160.4600     399
160.4800     386
160.5000     413
160.5200     464
160.5400     506
160.5600     463
160.5800     403
160.6000     435
160.6200     485
160.6400     446
160.6600     387
160.6800     402
160.7000     433
160.7200     402
160.7400     362
160.7600     402
160.7800     454
160.8000     403
160.8200     323
160.8400     308
160.8600     320
160.8800     340
160.9000     361
160.9200     365
160.9400     379
160.9600     472
160.9800     572
161.0000     552
161.0200     486
161.0400     431
161.0600     390
161.0800     393
161.1000     410
161.1200     417
161.1400     429
161.1600     491
161.1800     551
161.2000     499
161.2200     407
161.2400     332
161.2600     281
161.2800     320
161.3000     380
161.3200     372
161.3400     345
161.3600     364
161.3800     395
161.4000     386
161.4200     377
161.4400     441
161.4600     513
161.4800     470
161.5000     388
161.5200     334
161.5400     304
161.5600     334
161.5800     374
161.6000     339
161.6200     295
161.6400     351
161.6600     429
161.6800     419
161.7000     384
161.7200     407
161.7400     447
161.7600     452
161.7800     448
161.8000     461
161.8200     467
161.8400     408
161.8600     337
161.8800     341
161.9000     372
161.9200     388
161.9400     390
161.9600     354
161.9800     311