File: XRD_Tool/XRD_Tool/bin/Debug/LDA_sample_name_56789_Psi-0_20180622-214022.txt
137.2000    1280
137.2200    1231
137.2400    1192
137.2600    1166
137.2800    1194
137.3000    1230
137.3200    1209
137.3400    1169
137.3600    1145
137.3800    1140
137.4000    1187
137.4200    1244
137.4400    1246
137.4600    1225
137.4800    1201
137.5000    1182
137.5200    1201
137.5400    1226
137.5600    1206
137.5800    1172
137.6000    1157
137.6200    1152
137.6400    1163
137.6600    1186
137.6800    1231
137.7000    1280
137.7200    1304
137.7400    1301
137.7600    1211
137.7800    1105
137.8000    1087
137.8200    1103
137.8400    1104
137.8600    1104
137.8800    1127
137.9000    1160
137.9200    1197
137.9400    1228
137.9600    1227
137.9800    1211
138.0000    1185
138.0200    1167
138.0400    1211
138.0600    1263
138.0800    1233
138.1000    1178
138.1200    1157
138.1400    1139
138.1600    1074
138.1800    1016
138.2000    1088
138.2200    1188
138.2400    1166
138.2600    1113
138.2800    1144
138.3000    1198
138.3200    1203
138.3400    1199
138.3600    1245
138.3800    1296
138.4000    1271
138.4200    1214
138.4400    1152
138.4600    1103
138.4800    1130
138.5000    1178
138.5200    1176
138.5400    1162
138.5600    1187
138.5800    1223
138.6000    1244
138.6200    1252
138.6400    1235
138.6600    1214
138.6800    1228
138.7000    1254
138.7200    1268
138.7400    1271
138.7600    1238
138.7800    1197
138.8000    1194
138.8200    1210
138.8400    1250
138.8600    1292
138.8800    1305
138.9000    1305
138.9200    1295
138.9400    1286
138.9600    1301
138.9800    1310
139.0000    1249
139.0200    1166
139.0400    1118
139.0600    1087
139.0800    1069
139.1000    1060
139.1200    1068
139.1400    1080
139.1600    1085
139.1800    1095
139.2000    1145
139.2200    1196
139.2400    1171
139.2600    1130
139.2800    1170
139.3000    1230
139.3200    1229
139.3400    1204
139.3600    1182
139.3800    1166
139.4000    1168
139.4200    1191
139.4400    1276
139.4600    1357
139.4800    1294
139.5000    1189
139.5200    1160
139.5400    1164
139.5600    1189
139.5800    1220
139.6000    1236
139.6200    1238
139.6400    1195
139.6600    1142
139.6800    1124
139.7000    1129
139.7200    1181
139.7400    1228
139.7600    1158
139.7800    1061
139.8000    1059
139.8200    1096
139.8400    1140
139.8600    1180
139.8800    1193
139.9000    1194
139.9200    1188
139.9400    1182
139.9600    1187
139.9800    1193
140.0000    1188
140.0200    1185
140.0400    1204
140.0600    1226
140.0800    1220
140.1000    1205
140.1200    1206
140.1400    1211
140.1600    1196
140.1800    1177
140.2000    1170
140.2200    1169
140.2400    1178
140.2600    1194
140.2800    1232
140.3000    1271
140.3200    1273
140.3400    1253
140.3600    1193
140.3800    1131
140.4000    1142
140.4200    1176
140.4400    1177
140.4600    1167
140.4800    1164
140.5000    1166
140.5200    1183
140.5400    1203
140.5600    1213
140.5800    1215
140.6000    1200
140.6200    1181
140.6400    1177
140.6600    1182
140.6800    1202
140.7000    1218
140.7200    1183
140.7400    1139
140.7600    1154
140.7800    1186
140.8000    1175
140.8200    1145
140.8400    1107
140.8600    1082
140.8800    1142
140.9000    1221
140.9200    1228
140.9400    1209
140.9600    1202
140.9800    1199
141.0000    1191
141.0200    1185
141.0400    1204
141.0600    1223
141.0800    1195
141.1000    1155
141.1200    1142
141.1400    1143
141.1600    1159
141.1800    1173
141.2000    1152
141.2200    1136
141.2400    1218
141.2600    1313
141.2800    1270
141.3000    1182
141.3200    1147
141.3400    1133
141.3600    1119
141.3800    1110
141.4000    1125
141.4200    1148
141.4400    1169
141.4600    1194
141.4800    1242
141.5000    1293
141.5200    1304
141.5400    1294
141.5600    1256
141.5800    1215
141.6000    1222
141.6200    1245
141.6400    1253
141.6600    1250
141.6800    1219
141.7000    1192
141.7200    1240
141.7400    1303
141.7600    1293
141.7800    1257
141.8000    1242
141.8200    1241
141.8400    1262
141.8600    1286
141.8800    1283
141.9000    1273
141.9200    1283
141.9400    1305
141.9600    1345
141.9800    1382
142.0000    1359
142.0200    1316
142.0400    1288
142.0600    1272
142.0800    1283
142.1000    1303
142.1200    1315
142.1400    1320
142.1600    1315
142.1800    1306
142.2000    1305
142.2200    1307
142.2400    1306
142.2600    1302
142.2800    1293
142.3000    1282
142.3200    1278
142.3400    1275
142.3600    1270
142.3800    1267
142.4000    1279
142.4200    1297
142.4400    1315
142.4600    1323
142.4800    1278
142.5000    1227
142.5200    1251
142.5400    1302
142.5600    1340
142.5800    1353
142.6000    1274
142.6200    1187
142.6400    1247
142.6600    1345
142.6800    1341
142.7000    1302
142.7200    1288
142.7400    1284
142.7600    1276
142.7800    1268
142.8000    1255
142.8200    1246
142.8400    1260
142.8600    1278
142.8800    1265
142.9000    1244
142.9200    1248
142.9400    1260
142.9600    1265
142.9800    1263
143.0000    1241
143.0200    1225
143.0400    1277
143.0600    1341
143.0800    1325
143.1000    1288
143.1200    1301
143.1400    1329
143.1600    1322
143.1800    1306
143.2000    1310
143.2200    1321
143.2400    1325
143.2600    1325
143.2800    1315
143.3000    1301
143.3200    1284
143.3400    1269
143.3600    1269
143.3800    1281
143.4000    1325
143.4200    1366
143.4400    1333
143.4600    1281
143.4800    1276
143.5000    1292
143.5200    1318
143.5400    1340
143.5600    1325
143.5800    1294
143.6000    1258
143.6200    1225
143.6400    1217
143.6600    1219
143.6800    1220
143.7000    1214
143.7200    1183
143.7400    1162
143.7600    1248
143.7800    1351
143.8000    1332
143.8200    1277
143.8400    1284
143.8600    1308
143.8800    1293
143.9000    1273
143.9200    1305
143.9400    1347
143.9600    1341
143.9800    1323
144.0000    1348
144.0200    1376
144.0400    1334
144.0600    1272
144.0800    1247
144.1000    1240
144.1200    1253
144.1400    1271
144.1600    1279
144.1800    1278
144.2000    1252
144.2200    1226
144.2400    1252
144.2600    1292
144.2800    1300
144.3000    1299
144.3200    1316
144.3400    1332
144.3600    1308
144.3800    1284
144.4000    1341
144.4200    1402
144.4400    1331
144.4600    1233
144.4800    1267
144.5000    1338
144.5200    1332
144.5400    1301
144.5600    1293
144.5800    1303
144.6000    1353
144.6200    1399
144.6400    1342
144.6600    1256
144.6800    1233
144.7000    1236
144.7200    1244
144.7400    1248
144.7600    1219
144.7800    1190
144.8000    1229
144.8200    1281
144.8400    1260
144.8600    1229
144.8800    1293
144.9000    1372
144.9200    1337
144.9400    1264
144.9600    1221
144.9800    1200
145.0000    1219
145.0200    1251
145.0400    1260
145.0600    1266
145.0800    1307
145.1000    1339
145.1200    1262
145.1400    1159
145.1600    1140
145.1800    1160
145.2000    1215
145.2200    1278
145.2400    1314
145.2600    1325
145.2800    1260
145.3000    1188
145.3200    1237
145.3400    1325
145.3600    1360
145.3800    1365
145.4000    1328
145.4200    1286
145.4400    1301
145.4600    1326
145.4800    1286
145.5000    1231
145.5200    1234
145.5400    1265
145.5600    1320
145.5800    1361
145.6000    1287
145.6200    1182
145.6400    1152
145.6600    1156
145.6800    1183
145.7000    1218
145.7200    1248
145.7400    1267
145.7600    1245
145.7800    1213
145.8000    1221
145.8200    1238
145.8400    1219
145.8600    1200
145.8800    1243
145.9000    1305
145.9200    1340
145.9400    1357
145.9600    1333
145.9800    1300
146.0000    1303
146.0200    1319
146.0400    1325
146.0600    1320
146.0800    1278
146.1000    1244
146.1200    1319
146.1400    1415
146.1600    1399
146.1800    1349
146.2000    1345
146.2200    1355
146.2400    1334
146.2600    1304
146.2800    1296
146.3000    1289
146.3200    1247
146.3400    1198
146.3600    1187
146.3800    1182
146.4000    1132
146.4200    1087
146.4400    1155
146.4600    1253
146.4800    1269
146.5000    1269
146.5200    1346
146.5400    1428
146.5600    1378
146.5800    1295
146.6000    1309
146.6200    1356
146.6400    1376
146.6600    1378
146.6800    1335
146.7000    1283
146.7200    1274
146.7400    1281
146.7600    1280
146.7800    1283
146.8000    1319
146.8200    1362
146.8400    1367
146.8600    1357
146.8800    1349
146.9000    1348
146.9200    1385
146.9400    1431
146.9600    1444
146.9800    1447
147.0000    1470
147.0200    1487
147.0400    1439
147.0600    1380
147.0800    1399
147.1000    1437
147.1200    1414
147.1400    1372
147.1600    1365
147.1800    1362
147.2000    1316
147.2200    1258
147.2400    1235
147.2600    1229
147.2800    1243
147.3000    1263
147.3200    1276
147.3400    1290
147.3600    1326
147.3800    1361
147.4000    1349
147.4200    1318
147.4400    1281
147.4600    1255
147.4800    1300
147.5000    1360
147.5200    1350
147.5400    1324
147.5600    1360
147.5800    1411
147.6000    1417
147.6200    1400
147.6400    1356
147.6600    1316
147.6800    1346
147.7000    1388
147.7200    1347
147.7400    1294
147.7600    1347
147.7800    1426
147.8000    1415
147.8200    1373
147.8400    1349
147.8600    1334
147.8800    1323
147.9000    1326
147.9200    1394
147.9400    1462
147.9600    1403
147.9800    1323
148.0000    1395
148.0200    1492
148.0400    1416
148.0600    1296
148.0800    1306
148.1000    1363
148.1200    1397
148.1400    1414
148.1600    1397
148.1800    1370
148.2000    1357
148.2200    1355
148.2400    1386
148.2600    1422
148.2800    1414
148.3000    1383
148.3200    1316
148.3400    1261
148.3600    1339
148.3800    1448
148.4000    1440
148.4200    1395
148.4400    1393
148.4600    1404
148.4800    1389
148.5000    1361
148.5200    1326
148.5400    1296
148.5600    1304
148.5800    1329
148.6000    1356
148.6200    1380
148.6400    1386
148.6600    1378
148.6800    1345
148.7000    1310
148.7200    1323
148.7400    1364
148.7600    1447
148.7800    1523
148.8000    1479
148.8200    1409
148.8400    1447
148.8600    1518
148.8800    1533
148.9000    1519
148.9200    1475
148.9400    1427
148.9600    1424
148.9800    1443
149.0000    1485
149.0200    1521
149.0400    1474
149.0600    1404
149.0800    1391
149.1000    1399
149.1200    1410
149.1400    1423
149.1600    1437
149.1800    1446
149.2000    1419
149.2200    1387
149.2400    1407
149.2600    1430
149.2800    1371
149.3000    1305
149.3200    1367
149.3400    1466
149.3600    1487
149.3800    1472
149.4000    1434
149.4200    1396
149.4400    1409
149.4600    1439
149.4800    1449
149.5000    1451
149.5200    1448
149.5400    1444
149.5600    1440
149.5800    1442
149.6000    1477
149.6200    1521
149.6400    1546
149.6600    1562
149.6800    1583
149.7000    1588
149.7200    1508
149.7400    1421
149.7600    1470
149.7800    1555
149.8000    1538
149.8200    1495
149.8400    1518
149.8600    1563
149.8800    1594
149.9000    1607
149.9200    1557
149.9400    1496
149.9600    1510
149.9800    1551
150.0000    1577
150.0200    1591
150.0400    1575
150.0600    1544
150.0800    1496
150.1000    1448
150.1200    1428
150.1400    1437
150.1600    1530
150.1800    1633
150.2000    1626
150.2200    1577
150.2400    1545
150.2600    1524
150.2800    1528
150.3000    1539
150.3200    1536
150.3400    1544
150.3600    1633
150.3800    1726
150.4000    1689
150.4200    1614
150.4400    1614
150.4600    1637
150.4800    1630
150.5000    1620
150.5200    1663
150.5400    1719
150.5600    1732
150.5800    1732
150.6000    1754
150.6200    1780
150.6400    1788
150.6600    1780
150.6800    1737
150.7000    1685
150.7200    1666
150.7400    1663
150.7600    1672
150.7800    1690
150.8000    1731
150.8200    1776
150.8400    1796
150.8600    1804
150.8800    1801
150.9000    1792
150.9200    1777
150.9400    1766
150.9600    1777
150.9800    1790
151.0000    1766
151.0200    1748
151.0400    1827
151.0600    1916
151.0800    1863
151.1000    1778
151.1200    1820
151.1400    1894
151.1600    1880
151.1800    1849
151.2000    1915
151.2200    1992
151.2400    1935
151.2600    1846
151.2800    1864
151.3000    1935
151.3200    2065
151.3400    2184
151.3600    2139
151.3800    2033
151.4000    1944
151.4200    1874
151.4400    1864
151.4600    1900
151.4800    2048
151.5000    2213
151.5200    2248
151.5400    2222
151.5600    2157
151.5800    2094
151.6000    2116
151.6200    2168
151.6400    2201
151.6600    2215
151.6800    2179
151.7000    2141
151.7200    2198
151.7400    2298
151.7600    2429
151.7800    2544
151.8000    2513
151.8200    2437
151.8400    2434
151.8600    2454
151.8800    2444
151.9000    2443
151.9200    2542
151.9400    2665
151.9600    2700
151.9800    2703
152.0000    2724
152.0200    2747
152.0400    2742
152.0600    2728
152.0800    2727
152.1000    2725
152.1200    2695
152.1400    2660
152.1600    2665
152.1800    2700
152.2000    2808
152.2200    2918
152.2400    2883
152.2600    2802
152.2800    2780
152.3000    2801
152.3200    2928
152.3400    3067
152.3600    3050
152.3800    2989
152.4000    3026
152.4200    3095
152.4400    3131
152.4600    3127
152.4800    2993
152.5000    2847
152.5200    2901
152.5400    3025
152.5600    3102
152.5800    3160
152.6000    3215
152.6200    3273
152.6400    3353
152.6600    3424
152.6800    3411
152.7000    3373
152.7200    3372
152.7400    3399
152.7600    3491
152.7800    3581
152.8000    3529
152.8200    3449
152.8400    3511
152.8600    3616
152.8800    3657
152.9000    3672
152.9200    3681
152.9400    3677
152.9600    3621
152.9800    3557
153.0000    3555
153.0200    3576
153.0400    3595
153.0600    3604
153.0800    3568
153.1000    3528
153.1200    3558
153.1400    3605
153.1600    3597
153.1800    3572
153.2000    3567
153.2200    3553
153.2400    3447
153.2600    3360
153.2800    3548
153.3000    3776
153.3200    3656
153.3400    3446
153.3600    3488
153.3800    3609
153.4000    3628
153.4200    3610
153.4400    3612
153.4600    3614
153.4800    3571
153.5000    3530
153.5200    3584
153.5400    3665
153.5600    3691
153.5800    3695
153.6000    3699
153.6200    3693
153.6400    3637
153.6600    3579
153.6800    3613
153.7000    3668
153.7200    3648
153.7400    3598
153.7600    3548
153.7800    3499
153.8000    3457
153.8200    3409
153.8400    3322
153.8600    3247
153.8800    3307
153.9000    3393
153.9200    3338
153.9400    3246
153.9600    3260
153.9800    3312
154.0000    3343
154.0200    3357
154.0400    3331
154.0600    3284
154.0800    3215
154.1000    3158
154.1200    3205
154.1400    3273
154.1600    3242
154.1800    3178
154.2000    3141
154.2200    3119
154.2400    3119
154.2600    3118
154.2800    3072
154.3000    3026
154.3200    3071
154.3400    3120
154.3600    3001
154.3800    2835
154.4000    2771
154.4200    2745
154.4400    2712
154.4600    2688
154.4800    2722
154.5000    2776
154.5200    2810
154.5400    2831
154.5600    2825
154.5800    2802
154.6000    2741
154.6200    2678
154.6400    2682
154.6600    2716
154.6800    2772
154.7000    2805
154.7200    2688
154.7400    2538
154.7600    2528
154.7800    2566
154.8000    2562
154.8200    2551
154.8400    2583
154.8600    2617
154.8800    2570
154.9000    2498
154.9200    2469
154.9400    2461
154.9600    2471
154.9800    2474
155.0000    2402
155.0200    2316
155.0400    2307
155.0600    2315
155.0800    2253
155.1000    2176
155.1200    2165
155.1400    2169
155.1600    2107
155.1800    2042
155.2000    2097
155.2200    2178
155.2400    2157
155.2600    2108
155.2800    2122
155.3000    2165
155.3200    2218
155.3400    2259
155.3600    2215
155.3800    2150
155.4000    2145
155.4200    2160
155.4400    2147
155.4600    2136
155.4800    2191
155.5000    2243
155.5200    2142
155.5400    2006
155.5600    2000
155.5800    2037
155.6000    2029
155.6200    1999
155.6400    1947
155.6600    1903
155.6800    1937
155.7000    1990
155.7200    1975
155.7400    1933
155.7600    1892
155.7800    1864
155.8000    1891
155.8200    1930
155.8400    1914
155.8600    1872
155.8800    1809
155.9000    1749
155.9200    1754
155.9400    1774
155.9600    1744
155.9800    1703
156.0000    1712
156.0200    1744
156.0400    1796
156.0600    1841
156.0800    1808
156.1000    1756
156.1200    1771
156.1400    1803
156.1600    1798
156.1800    1774
156.2000    1727
156.2200    1685
156.2400    1714
156.2600    1759
156.2800    1739
156.3000    1693
156.3200    1647
156.3400    1607
156.3600    1597
156.3800    1600
156.4000    1605
156.4200    1612
156.4400    1627
156.4600    1633
156.4800    1576
156.5000    1520
156.5200    1599
156.5400    1705
156.5600    1679
156.5800    1607
156.6000    1565
156.6200    1537
156.6400    1518
156.6600    1511
156.6800    1554
156.7000    1606
156.7200    1608
156.7400    1591
156.7600    1580
156.7800    1567
156.8000    1526
156.8200    1488
156.8400    1524
156.8600    1581
156.8800    1606
156.9000    1610
156.9200    1574
156.9400    1537
156.9600    1573
156.9800    1625
157.0000    1607
157.0200    1574
157.0400    1606
157.0600    1657
157.0800    1673
157.1000    1662
157.1200    1581
157.1400    1490
157.1600    1486
157.1800    1518
157.2000    1565
157.2200    1601
157.2400    1557
157.2600    1493
157.2800    1487
157.3000    1504
157.3200    1513
157.3400    1523
157.3600    1558
157.3800    1590
157.4000    1564
157.4200    1517
157.4400    1483
157.4600    1461
157.4800    1467
157.5000    1466
157.5200    1369
157.5400    1268
157.5600    1343
157.5800    1473
157.6000    1518
157.6200    1517
157.6400    1449
157.6600    1378
157.6800    1422
157.7000    1485
157.7200    1408
157.7400    1301
157.7600    1316
157.7800    1372
157.8000    1389
157.8200    1395
157.8400    1420
157.8600    1442
157.8800    1414
157.9000    1364
157.9200    1309
157.9400    1271
157.9600    1336
157.9800    1430
158.0000    1459
158.0200    1463
158.0400    1469
158.0600    1468
158.0800    1433
158.1000    1395
158.1200    1404
158.1400    1420
158.1600    1376
158.1800    1315
158.2000    1291
158.2200    1282
158.2400    1280
158.2600    1288
158.2800    1342
158.3000    1403
158.3200    1406
158.3400    1386
158.3600    1368
158.3800    1349
158.4000    1330
158.4200    1321
158.4400    1369
158.4600    1422
158.4800    1393
158.5000    1335
158.5200    1294
158.5400    1269
158.5600    1292
158.5800    1333
158.6000    1369
158.6200    1396
158.6400    1390
158.6600    1373
158.6800    1371
158.7000    1375
158.7200    1382
158.7400    1389
158.7600    1390
158.7800    1389
158.8000    1395
158.8200    1398
158.8400    1375
158.8600    1343
158.8800    1312
158.9000    1288
158.9200    1309
158.9400    1337
158.9600    1317
158.9800    1286
159.0000    1306
159.0200    1343
159.0400    1360
159.0600    1367
159.0800    1356
159.1000    1334
159.1200    1293
159.1400    1260
159.1600    1302
159.1800    1373
159.2000    1436
159.2200    1476
159.2400    1416
159.2600    1323
159.2800    1263
159.3000    1227
159.3200    1238
159.3400    1268
159.3600    1301
159.3800    1332
159.4000    1345
159.4200    1341
159.4400    1290
159.4600    1235
159.4800    1252
159.5000    1291
159.5200    1293
159.5400    1284
159.5600    1287
159.5800    1302
159.6000    1355
159.6200    1396
159.6400    1304
159.6600    1190
159.6800    1238
159.7000    1333
159.7200    1343
159.7400    1319
159.7600    1294
159.7800    1278
159.8000    1299
159.8200    1330
159.8400    1334
159.8600    1328
159.8800    1322
159.9000    1317
159.9200    1314
159.9400    1316
159.9600    1338
159.9800    1352
160.0000    1289
160.0200    1212
160.0400    1222
160.0600    1266
160.0800    1308
160.1000    1348
160.1200    1375
160.1400    1381
160.1600    1305
160.1800    1215
160.2000    1215
160.2200    1250
160.2400    1280
160.2600    1304
160.2800    1310
160.3000    1306
160.3200    1290
160.3400    1275
160.3600    1283
160.3800    1293
160.4000    1258
160.4200    1216
160.4400    1226
160.4600    1259
160.4800    1307
160.5000    1349
160.5200    1333
160.5400    1295
160.5600    1268
160.5800    1245
160.6000    1219
160.6200    1204
160.6400    1251
160.6600    1306
160.6800    1281
160.7000    1231
160.7200    1222
160.7400    1227
160.7600    1214
160.7800    1203
160.8000    1241
160.8200    1291
160.8400    1314
160.8600    1325
160.8800    1331
160.9000    1336
160.9200    1344
160.9400    1342
160.9600    1280
160.9800    1216
161.0000    1262
161.0200    1344
161.0400    1383
161.0600    1394
161.0800    1351
161.1000    1295
161.1200    1274
161.1400    1279
161.1600    1338
161.1800    1397