File: XRD_Tool/XRD_Tool/bin/Debug/LDA_sample_name_56789_Psi-0_20180603-114339.txt
137.2000     254
137.2400     246
137.2800     236
137.3200     227
137.3600     260
137.4000     265
137.4400     291
137.4800     267
137.5200     279
137.5600     250
137.6000     259
137.6400     267
137.6800     219
137.7200     236
137.7600     246
137.8000     274
137.8400     234
137.8800     265
137.9200     247
137.9600     272
138.0000     238
138.0400     240
138.0800     265
138.1200     257
138.1600     266
138.2000     243
138.2400     261
138.2800     292
138.3200     262
138.3600     252
138.4000     247
138.4400     258
138.4800     269
138.5200     288
138.5600     255
138.6000     248
138.6400     239
138.6800     253
138.7200     254
138.7600     262
138.8000     237
138.8400     255
138.8800     238
138.9200     238
138.9600     251
139.0000     246
139.0400     240
139.0800     259
139.1200     295
139.1600     247
139.2000     266
139.2400     269
139.2800     270
139.3200     252
139.3600     226
139.4000     281
139.4400     267
139.4800     248
139.5200     249
139.5600     251
139.6000     223
139.6400     249
139.6800     240
139.7200     264
139.7600     271
139.8000     251
139.8400     260
139.8800     247
139.9200     272
139.9600     254
140.0000     258
140.0400     242
140.0800     254
140.1200     275
140.1600     238
140.2000     261
140.2400     262
140.2800     285
140.3200     239
140.3600     240
140.4000     251
140.4400     288
140.4800     250
140.5200     233
140.5600     249
140.6000     246
140.6400     253
140.6800     262
140.7200     237
140.7600     233
140.8000     271
140.8400     263
140.8800     257
140.9200     273
140.9600     304
141.0000     270
141.0400     271
141.0800     261
141.1200     248
141.1600     271
141.2000     236
141.2400     260
141.2800     257
141.3200     269
141.3600     256
141.4000     267
141.4400     248
141.4800     261
141.5200     266
141.5600     250
141.6000     262
141.6400     258
141.6800     274
141.7200     266
141.7600     264
141.8000     270
141.8400     267
141.8800     245
141.9200     255
141.9600     253
142.0000     277
142.0400     272
142.0800     261
142.1200     236
142.1600     245
142.2000     264
142.2400     254
142.2800     242
142.3200     262
142.3600     274
142.4000     254
142.4400     268
142.4800     262
142.5200     262
142.5600     266
142.6000     304
142.6400     273
142.6800     271
142.7200     272
142.7600     293
142.8000     261
142.8400     263
142.8800     270
142.9200     279
142.9600     259
143.0000     271
143.0400     276
143.0800     279
143.1200     278
143.1600     259
143.2000     257
143.2400     259
143.2800     254
143.3200     288
143.3600     267
143.4000     269
143.4400     248
143.4800     294
143.5200     259
143.5600     243
143.6000     272
143.6400     276
143.6800     258
143.7200     283
143.7600     216
143.8000     304
143.8400     285
143.8800     259
143.9200     272
143.9600     264
144.0000     283
144.0400     282
144.0800     255
144.1200     301
144.1600     256
144.2000     273
144.2400     262
144.2800     300
144.3200     254
144.3600     297
144.4000     268
144.4400     287
144.4800     278
144.5200     271
144.5600     288
144.6000     268
144.6400     255
144.6800     256
144.7200     264
144.7600     270
144.8000     274
144.8400     264
144.8800     271
144.9200     280
144.9600     300
145.0000     279
145.0400     262
145.0800     239
145.1200     239
145.1600     232
145.2000     294
145.2400     305
145.2800     270
145.3200     261
145.3600     304
145.4000     256
145.4400     280
145.4800     283
145.5200     284
145.5600     277
145.6000     264
145.6400     255
145.6800     279
145.7200     298
145.7600     238
145.8000     251
145.8400     277
145.8800     250
145.9200     287
145.9600     277
146.0000     273
146.0400     272
146.0800     254
146.1200     271
146.1600     246
146.2000     272
146.2400     275
146.2800     279
146.3200     265
146.3600     248
146.4000     282
146.4400     269
146.4800     267
146.5200     290
146.5600     225
146.6000     256
146.6400     263
146.6800     285
146.7200     301
146.7600     268
146.8000     303
146.8400     285
146.8800     254
146.9200     265
146.9600     281
147.0000     250
147.0400     299
147.0800     281
147.1200     264
147.1600     290
147.2000     251
147.2400     278
147.2800     252
147.3200     275
147.3600     268
147.4000     275
147.4400     294
147.4800     272
147.5200     272
147.5600     263
147.6000     278
147.6400     280
147.6800     297
147.7200     280
147.7600     262
147.8000     279
147.8400     282
147.8800     282
147.9200     282
147.9600     273
148.0000     288
148.0400     304
148.0800     269
148.1200     254
148.1600     284
148.2000     273
148.2400     311
148.2800     271
148.3200     272
148.3600     291
148.4000     287
148.4400     294
148.4800     294
148.5200     303
148.5600     299
148.6000     273
148.6400     291
148.6800     316
148.7200     256
148.7600     290
148.8000     313
148.8400     282
148.8800     284
148.9200     270
148.9600     271
149.0000     299
149.0400     298
149.0800     299
149.1200     312
149.1600     305
149.2000     285
149.2400     313
149.2800     312
149.3200     284
149.3600     325
149.4000     304
149.4400     320
149.4800     287
149.5200     250
149.5600     299
149.6000     292
149.6400     306
149.6800     283
149.7200     291
149.7600     301
149.8000     276
149.8400     299
149.8800     278
149.9200     351
149.9600     341
150.0000     284
150.0400     321
150.0800     304
150.1200     283
150.1600     295
150.2000     297
150.2400     313
150.2800     292
150.3200     311
150.3600     310
150.4000     292
150.4400     298
150.4800     313
150.5200     318
150.5600     354
150.6000     331
150.6400     290
150.6800     313
150.7200     284
150.7600     336
150.8000     356
150.8400     369
150.8800     330
150.9200     329
150.9600     329
151.0000     324
151.0400     296
151.0800     355
151.1200     317
151.1600     343
151.2000     339
151.2400     319
151.2800     328
151.3200     299
151.3600     328
151.4000     334
151.4400     361
151.4800     331
151.5200     340
151.5600     326
151.6000     343
151.6400     368
151.6800     353
151.7200     355
151.7600     371
151.8000     376
151.8400     414
151.8800     347
151.9200     372
151.9600     365
152.0000     355
152.0400     387
152.0800     384
152.1200     395
152.1600     393
152.2000     381
152.2400     364
152.2800     396
152.3200     395
152.3600     414
152.4000     385
152.4400     415
152.4800     445
152.5200     464
152.5600     417
152.6000     443
152.6400     479
152.6800     507
152.7200     473
152.7600     482
152.8000     457
152.8400     481
152.8800     500
152.9200     493
152.9600     502
153.0000     519
153.0400     514
153.0800     506
153.1200     509
153.1600     561
153.2000     524
153.2400     564
153.2800     624
153.3200     533
153.3600     550
153.4000     652
153.4400     609
153.4800     634
153.5200     579
153.5600     620
153.6000     683
153.6400     633
153.6800     614
153.7200     642
153.7600     696
153.8000     692
153.8400     674
153.8800     724
153.9200     711
153.9600     730
154.0000     675
154.0400     747
154.0800     686
154.1200     728
154.1600     728
154.2000     810
154.2400     740
154.2800     768
154.3200     747
154.3600     704
154.4000     755
154.4400     729
154.4800     712
154.5200     793
154.5600     834
154.6000     769
154.6400     778
154.6800     729
154.7200     703
154.7600     736
154.8000     722
154.8400     770
154.8800     742
154.9200     759
154.9600     810
155.0000     775
155.0400     810
155.0800     760
155.1200     706
155.1600     715
155.2000     701
155.2400     709
155.2800     701
155.3200     709
155.3600     727
155.4000     712
155.4400     610
155.4800     691
155.5200     673
155.5600     654
155.6000     617
155.6400     632
155.6800     561
155.7200     577
155.7600     576
155.8000     604
155.8400     599
155.8800     582
155.9200     539
155.9600     547
156.0000     555
156.0400     550
156.0800     592
156.1200     587
156.1600     539
156.2000     521
156.2400     540
156.2800     563
156.3200     508
156.3600     527
156.4000     447
156.4400     530
156.4800     471
156.5200     480
156.5600     497
156.6000     486
156.6400     457
156.6800     503
156.7200     444
156.7600     447
156.8000     430
156.8400     440
156.8800     469
156.9200     439
156.9600     410
157.0000     432
157.0400     413
157.0800     429
157.1200     412
157.1600     404
157.2000     410
157.2400     344
157.2800     391
157.3200     385
157.3600     386
157.4000     367
157.4400     390
157.4800     373
157.5200     376
157.5600     344
157.6000     361
157.6400     327
157.6800     371
157.7200     378
157.7600     365
157.8000     351
157.8400     373
157.8800     404
157.9200     393
157.9600     366
158.0000     367
158.0400     377
158.0800     350
158.1200     362
158.1600     351
158.2000     318
158.2400     361
158.2800     348
158.3200     314
158.3600     318
158.4000     323
158.4400     352
158.4800     342
158.5200     322
158.5600     288
158.6000     309
158.6400     326
158.6800     325
158.7200     354
158.7600     309
158.8000     353
158.8400     344
158.8800     325
158.9200     300
158.9600     293
159.0000     344
159.0400     301
159.0800     315
159.1200     286
159.1600     310
159.2000     328
159.2400     284
159.2800     333
159.3200     338
159.3600     299
159.4000     338
159.4400     317
159.4800     308
159.5200     300
159.5600     287
159.6000     311
159.6400     312
159.6800     298
159.7200     320
159.7600     296
159.8000     320
159.8400     335
159.8800     300
159.9200     301
159.9600     294
160.0000     305
160.0400     304
160.0800     294
160.1200     296
160.1600     275
160.2000     270
160.2400     308
160.2800     302
160.3200     269
160.3600     270
160.4000     287
160.4400     283
160.4800     302
160.5200     318
160.5600     303
160.6000     276
160.6400     279
160.6800     254
160.7200     302
160.7600     300
160.8000     276
160.8400     324
160.8800     316
160.9200     274
160.9600     311
161.0000     245
161.0400     290
161.0800     276
161.1200     262
161.1600     269
161.2000     269
161.2400     258
161.2800     266
161.3200     267
161.3600     279
161.4000     277
161.4400     301
161.4800     297
161.5200     276
161.5600     279
161.6000     249
161.6400     261
161.6800     248
161.7200     268
161.7600     267
161.8000     272
161.8400     282
161.8800     263
161.9200     236
161.9600     280
162.0000     261
162.0400     293
162.0800     290
162.1200     278
162.1600     245
162.2000     249
162.2400     273
162.2800     291
162.3200     266
162.3600     260
162.4000     257
162.4400     260
162.4800     274
162.5200     232
162.5600     290
162.6000     252
162.6400     269
162.6800     273
162.7200     251
162.7600     238