File: XRD_Tool/XRD_Tool/bin/Debug/LDA_sample_name_56789_Psi-24_20180623-125611.txt
138.0000     302
138.0200     288
138.0400     314
138.0600     347
138.0800     332
138.1000     299
138.1200     276
138.1400     256
138.1600     239
138.1800     232
138.2000     267
138.2200     310
138.2400     310
138.2600     289
138.2800     258
138.3000     231
138.3200     251
138.3400     279
138.3600     262
138.3800     236
138.4000     262
138.4200     295
138.4400     268
138.4600     226
138.4800     236
138.5000     268
138.5200     310
138.5400     345
138.5600     326
138.5800     286
138.6000     246
138.6200     214
138.6400     222
138.6600     243
138.6800     246
138.7000     240
138.7200     224
138.7400     208
138.7600     215
138.7800     234
138.8000     267
138.8200     295
138.8400     274
138.8600     250
138.8800     305
138.9000     376
138.9200     375
138.9400     349
138.9600     343
138.9800     346
139.0000     354
139.0200     353
139.0400     297
139.0600     240
139.0800     286
139.1000     351
139.1200     301
139.1400     226
139.1600     256
139.1800     318
139.2000     327
139.2200     313
139.2400     291
139.2600     278
139.2800     331
139.3000     381
139.3200     280
139.3400     149
139.3600     174
139.3800     251
139.4000     268
139.4200     264
139.4400     268
139.4600     267
139.4800     218
139.5000     164
139.5200     183
139.5400     231
139.5600     274
139.5800     308
139.6000     299
139.6200     277
139.6400     276
139.6600     281
139.6800     270
139.7000     256
139.7200     262
139.7400     273
139.7600     272
139.7800     264
139.8000     246
139.8200     225
139.8400     209
139.8600     201
139.8800     225
139.9000     257
139.9200     272
139.9400     283
139.9600     306
139.9800     326
140.0000     306
140.0200     270
140.0400     232
140.0600     206
140.0800     237
140.1000     290
140.1200     341
140.1400     373
140.1600     312
140.1800     235
140.2000     263
140.2200     317
140.2400     292
140.2600     249
140.2800     270
140.3000     303
140.3200     271
140.3400     225
140.3600     240
140.3800     271
140.4000     254
140.4200     222
140.4400     210
140.4600     212
140.4800     246
140.5000     282
140.5200     271
140.5400     247
140.5600     251
140.5800     258
140.6000     220
140.6200     169
140.6400     140
140.6600     129
140.6800     163
140.7000     210
140.7200     235
140.7400     250
140.7600     259
140.7800     259
140.8000     232
140.8200     203
140.8400     216
140.8600     246
140.8800     281
140.9000     316
140.9200     344
140.9400     365
140.9600     358
140.9800     333
141.0000     276
141.0200     225
141.0400     266
141.0600     328
141.0800     315
141.1000     275
141.1200     257
141.1400     246
141.1600     235
141.1800     233
141.2000     284
141.2200     346
141.2400     353
141.2600     337
141.2800     308
141.3000     275
141.3200     250
141.3400     228
141.3600     208
141.3800     205
141.4000     285
141.4200     376
141.4400     349
141.4600     279
141.4800     230
141.5000     197
141.5200     194
141.5400     211
141.5600     261
141.5800     315
141.6000     314
141.6200     288
141.6400     244
141.6600     203
141.6800     215
141.7000     238
141.7200     206
141.7400     166
141.7600     194
141.7800     244
141.8000     261
141.8200     270
141.8400     302
141.8600     335
141.8800     320
141.9000     291
141.9200     287
141.9400     287
141.9600     262
141.9800     243
142.0000     312
142.0200     400
142.0400     408
142.0600     378
142.0800     317
142.1000     256
142.1200     260
142.1400     278
142.1600     241
142.1800     197
142.2000     235
142.2200     299
142.2400     334
142.2600     353
142.2800     346
142.3000     325
142.3200     290
142.3400     262
142.3600     294
142.3800     342
142.4000     347
142.4200     337
142.4400     337
142.4600     346
142.4800     383
142.5000     417
142.5200     380
142.5400     336
142.5600     405
142.5800     491
142.6000     434
142.6200     339
142.6400     339
142.6600     368
142.6800     353
142.7000     323
142.7200     302
142.7400     293
142.7600     334
142.7800     381
142.8000     363
142.8200     332
142.8400     366
142.8600     408
142.8800     362
142.9000     295
142.9200     304
142.9400     339
142.9600     346
142.9800     341
143.0000     331
143.0200     326
143.0400     359
143.0600     396
143.0800     373
143.1000     332
143.1200     314
143.1400     308
143.1600     307
143.1800     310
143.2000     320
143.2200     334
143.2400     358
143.2600     376
143.2800     346
143.3000     299
143.3200     270
143.3400     251
143.3600     244
143.3800     253
143.4000     317
143.4200     389
143.4400     391
143.4600     367
143.4800     354
143.5000     338
143.5200     282
143.5400     224
143.5600     235
143.5800     264
143.6000     248
143.6200     229
143.6400     286
143.6600     364
143.6800     392
143.7000     399
143.7200     398
143.7400     389
143.7600     353
143.7800     315
143.8000     319
143.8200     334
143.8400     322
143.8600     308
143.8800     334
143.9000     367
143.9200     355
143.9400     333
143.9600     349
143.9800     368
144.0000     321
144.0200     262
144.0400     278
144.0600     326
144.0800     389
144.1000     436
144.1200     381
144.1400     289
144.1600     214
144.1800     179
144.2000     311
144.2200     472
144.2400     449
144.2600     366
144.2800     348
144.3000     352
144.3200     331
144.3400     305
144.3600     299
144.3800     298
144.4000     284
144.4200     272
144.4400     303
144.4600     348
144.4800     373
144.5000     382
144.5200     343
144.5400     291
144.5600     270
144.5800     271
144.6000     316
144.6200     369
144.6400     378
144.6600     378
144.6800     415
144.7000     452
144.7200     416
144.7400     364
144.7600     387
144.7800     433
144.8000     447
144.8200     434
144.8400     344
144.8600     241
144.8800     223
144.9000     237
144.9200     241
144.9400     248
144.9600     290
144.9800     343
145.0000     378
145.0200     396
145.0400     366
145.0600     331
145.0800     372
145.1000     428
145.1200     403
145.1400     355
145.1600     360
145.1800     380
145.2000     368
145.2200     355
145.2400     397
145.2600     449
145.2800     436
145.3000     398
145.3200     362
145.3400     330
145.3600     320
145.3800     320
145.4000     330
145.4200     337
145.4400     310
145.4600     281
145.4800     302
145.5000     336
145.5200     328
145.5400     313
145.5600     343
145.5800     382
145.6000     373
145.6200     350
145.6400     350
145.6600     350
145.6800     302
145.7000     255
145.7200     315
145.7400     401
145.7600     407
145.7800     386
145.8000     391
145.8200     396
145.8400     343
145.8600     284
145.8800     308
145.9000     355
145.9200     347
145.9400     320
145.9600     310
145.9800     302
146.0000     274
146.0200     251
146.0400     293
146.0600     349
146.0800     348
146.1000     326
146.1200     309
146.1400     298
146.1600     302
146.1800     312
146.2000     319
146.2200     327
146.2400     346
146.2600     357
146.2800     303
146.3000     237
146.3200     241
146.3400     272
146.3600     295
146.3800     319
146.4000     363
146.4200     411
146.4400     441
146.4600     449
146.4800     390
146.5000     313
146.5200     278
146.5400     269
146.5600     306
146.5800     349
146.6000     327
146.6200     287
146.6400     282
146.6600     296
146.6800     330
146.7000     376
146.7200     440
146.7400     492
146.7600     441
146.7800     367
146.8000     386
146.8200     433
146.8400     430
146.8600     407
146.8800     377
146.9000     350
146.9200     348
146.9400     356
146.9600     364
146.9800     375
147.0000     396
147.0200     416
147.0400     403
147.0600     381
147.0800     382
147.1000     386
147.1200     360
147.1400     333
147.1600     358
147.1800     390
147.2000     352
147.2200     303
147.2400     344
147.2600     405
147.2800     394
147.3000     357
147.3200     334
147.3400     322
147.3600     340
147.3800     375
147.4000     435
147.4200     487
147.4400     454
147.4600     389
147.4800     337
147.5000     302
147.5200     320
147.5400     355
147.5600     362
147.5800     350
147.6000     301
147.6200     249
147.6400     252
147.6600     277
147.6800     299
147.7000     318
147.7200     334
147.7400     348
147.7600     362
147.7800     379
147.8000     416
147.8200     450
147.8400     432
147.8600     399
147.8800     388
147.9000     396
147.9200     457
147.9400     522
147.9600     499
147.9800     454
148.0000     477
148.0200     510
148.0400     460
148.0600     384
148.0800     351
148.1000     343
148.1200     374
148.1400     416
148.1600     438
148.1800     441
148.2000     394
148.2200     340
148.2400     359
148.2600     394
148.2800     364
148.3000     325
148.3200     368
148.3400     437
148.3600     474
148.3800     486
148.4000     433
148.4200     361
148.4400     319
148.4600     302
148.4800     347
148.5000     410
148.5200     438
148.5400     436
148.5600     355
148.5800     255
148.6000     214
148.6200     215
148.6400     312
148.6600     429
148.6800     451
148.7000     435
148.7200     418
148.7400     400
148.7600     387
148.7800     379
148.8000     394
148.8200     409
148.8400     379
148.8600     347
148.8800     390
148.9000     447
148.9200     421
148.9400     381
148.9600     443
148.9800     523
149.0000     496
149.0200     435
149.0400     417
149.0600     412
149.0800     379
149.1000     347
149.1200     377
149.1400     425
149.1600     448
149.1800     460
149.2000     475
149.2200     486
149.2400     467
149.2600     437
149.2800     407
149.3000     387
149.3200     414
149.3400     445
149.3600     401
149.3800     345
149.4000     379
149.4200     444
149.4400     485
149.4600     508
149.4800     481
149.5000     440
149.5200     422
149.5400     416
149.5600     419
149.5800     432
149.6000     480
149.6200     519
149.6400     444
149.6600     356
149.6800     423
149.7000     532
149.7200     534
149.7400     495
149.7600     461
149.7800     433
149.8000     420
149.8200     413
149.8400     399
149.8600     394
149.8800     444
149.9000     510
149.9200     541
149.9400     547
149.9600     495
149.9800     430
150.0000     420
150.0200     434
150.0400     460
150.0600     482
150.0800     467
150.1000     459
150.1200     559
150.1400     668
150.1600     599
150.1800     471
150.2000     406
150.2200     381
150.2400     428
150.2600     492
150.2800     499
150.3000     490
150.3200     515
150.3400     540
150.3600     503
150.3800     448
150.4000     430
150.4200     432
150.4400     464
150.4600     501
150.4800     503
150.5000     489
150.5200     468
150.5400     448
150.5600     445
150.5800     451
150.6000     467
150.6200     486
150.6400     500
150.6600     513
150.6800     529
150.7000     546
150.7200     555
150.7400     560
150.7600     560
150.7800     555
150.8000     536
150.8200     517
150.8400     520
150.8600     531
150.8800     537
150.9000     534
150.9200     496
150.9400     470
150.9600     576
150.9800     703
151.0000     676
151.0200     611
151.0400     661
151.0600     738
151.0800     719
151.1000     672
151.1200     685
151.1400     715
151.1600     713
151.1800     699
151.2000     682
151.2200     666
151.2400     663
151.2600     659
151.2800     623
151.3000     592
151.3200     645
151.3400     719
151.3600     736
151.3800     722
151.4000     666
151.4200     606
151.4400     605
151.4600     626
151.4800     642
151.5000     665
151.5200     736
151.5400     808
151.5600     792
151.5800     750
151.6000     758
151.6200     778
151.6400     758
151.6600     727
151.6800     723
151.7000     728
151.7200     729
151.7400     737
151.7600     784
151.7800     831
151.8000     808
151.8200     773
151.8400     823
151.8600     886
151.8800     846
151.9000     773
151.9200     748
151.9400     747
151.9600     771
151.9800     810
152.0000     876
152.0200     932
152.0400     890
152.0600     816
152.0800     787
152.1000     782
152.1200     814
152.1400     849
152.1600     832
152.1800     803
152.2000     821
152.2200     856
152.2400     889
152.2600     925
152.2800     981
152.3000    1032
152.3200    1015
152.3400     980
152.3600     992
152.3800    1020
152.4000    1038
152.4200    1043
152.4400    1008
152.4600     963
152.4800     951
152.5000     960
152.5200    1004
152.5400    1072
152.5600    1192
152.5800    1301
152.6000    1253
152.6200    1167
152.6400    1201
152.6600    1275
152.6800    1309
152.7000    1341
152.7200    1440
152.7400    1532
152.7600    1455
152.7800    1342
152.8000    1384
152.8200    1484
152.8400    1563
152.8600    1621
152.8800    1619
152.9000    1596
152.9200    1591
152.9400    1595
152.9600    1606
152.9800    1606
153.0000    1539
153.0200    1465
153.0400    1489
153.0600    1552
153.0800    1605
153.1000    1654
153.1200    1700
153.1400    1741
153.1600    1765
153.1800    1788
153.2000    1833
153.2200    1874
153.2400    1851
153.2600    1808
153.2800    1787
153.3000    1773
153.3200    1751
153.3400    1762
153.3600    1959
153.3800    2180
153.4000    2146
153.4200    2038
153.4400    2065
153.4600    2125
153.4800    2072
153.5000    2002
153.5200    2073
153.5400    2194
153.5600    2275
153.5800    2325
153.6000    2293
153.6200    2231
153.6400    2178
153.6600    2149
153.6800    2226
153.7000    2334
153.7200    2381
153.7400    2395
153.7600    2369
153.7800    2328
153.8000    2297
153.8200    2281
153.8400    2325
153.8600    2380
153.8800    2370
153.9000    2332
153.9200    2286
153.9400    2241
153.9600    2226
153.9800    2246
154.0000    2388
154.0200    2532
154.0400    2449
154.0600    2311
154.0800    2350
154.1000    2439
154.1200    2423
154.1400    2393
154.1600    2504
154.1800    2644
154.2000    2641
154.2200    2578
154.2400    2502
154.2600    2434
154.2800    2436
154.3000    2468
154.3200    2513
154.3400    2553
154.3600    2543
154.3800    2523
154.4000    2553
154.4200    2584
154.4400    2517
154.4600    2432
154.4800    2455
154.5000    2526
154.5200    2620
154.5400    2703
154.5600    2681
154.5800    2615
154.6000    2534
154.6200    2445
154.6400    2339
154.6600    2253
154.6800    2297
154.7000    2379
154.7200    2388
154.7400    2353
154.7600    2246
154.7800    2158
154.8000    2307
154.8200    2498
154.8400    2427
154.8600    2274
154.8800    2235
154.9000    2258
154.9200    2366
154.9400    2479
154.9600    2450
154.9800    2381
155.0000    2397
155.0200    2440
155.0400    2448
155.0600    2424
155.0800    2312
155.1000    2186
155.1200    2172
155.1400    2177
155.1600    2062
155.1800    1920
155.2000    1886
155.2200    1902
155.2400    1945
155.2600    1987
155.2800    1972
155.3000    1925
155.3200    1831
155.3400    1765
155.3600    1929
155.3800    2128
155.4000    2039
155.4200    1854
155.4400    1762
155.4600    1735
155.4800    1843
155.5000    1967
155.5200    1899
155.5400    1777
155.5600    1765
155.5800    1788
155.6000    1766
155.6200    1722
155.6400    1658
155.6600    1612
155.6800    1696
155.7000    1794
155.7200    1699
155.7400    1555
155.7600    1554
155.7800    1603
155.8000    1617
155.8200    1618
155.8400    1623
155.8600    1606
155.8800    1474
155.9000    1330
155.9200    1361
155.9400    1452
155.9600    1496
155.9800    1508
156.0000    1448
156.0200    1364
156.0400    1297
156.0600    1254
156.0800    1296
156.1000    1358
156.1200    1350
156.1400    1318
156.1600    1309
156.1800    1298
156.2000    1229
156.2200    1154
156.2400    1166
156.2600    1200
156.2800    1175
156.3000    1129
156.3200    1093
156.3400    1070
156.3600    1087
156.3800    1127
156.4000    1199
156.4200    1266
156.4400    1251
156.4600    1199
156.4800    1124
156.5000    1051
156.5200    1033
156.5400    1028
156.5600     980
156.5800     926
156.6000     933
156.6200     963
156.6400     982
156.6600     994
156.6800     997
156.7000     988
156.7200     929
156.7400     870
156.7600     903
156.7800     959
156.8000     948
156.8200     910
156.8400     869
156.8600     843
156.8800     897
156.9000     967
156.9200     962
156.9400     925
156.9600     883
156.9800     853
157.0000     896
157.0200     951
157.0400     916
157.0600     851
157.0800     809
157.1000     783
157.1200     782
157.1400     795
157.1600     823
157.1800     836
157.2000     746
157.2200     637
157.2400     641
157.2600     690
157.2800     732
157.3000     764
157.3200     753
157.3400     734
157.3600     758
157.3800     798
157.4000     825
157.4200     827
157.4400     734
157.4600     619
157.4800     589
157.5000     600
157.5200     644
157.5400     702
157.5600     757
157.5800     784
157.6000     676
157.6200     547
157.6400     588
157.6600     681
157.6800     701
157.7000     694
157.7200     702
157.7400     723
157.7600     779
157.7800     827
157.8000     766
157.8200     668
157.8400     597
157.8600     547
157.8800     545
157.9000     566
157.9200     600
157.9400     634
157.9600     638
157.9800     632
158.0000     633
158.0200     629
158.0400     583
158.0600     537
158.0800     571
158.1000     627
158.1200     635
158.1400     620
158.1600     592
158.1800     560
158.2000     539
158.2200     528
158.2400     537
158.2600     545
158.2800     501
158.3000     449
158.3200     454
158.3400     484
158.3600     524
158.3800     561
158.4000     566
158.4200     554
158.4400     522
158.4600     482
158.4800     437
158.5000     398
158.5200     391
158.5400     399
158.5600     418
158.5800     439
158.6000     444
158.6200     451
158.6400     503
158.6600     555
158.6800     517
158.7000     461
158.7200     496
158.7400     560
158.7600     584
158.7800     587
158.8000     560
158.8200     523
158.8400     493
158.8600     467
158.8800     453
158.9000     443
158.9200     433
158.9400     429
158.9600     456
158.9800     491
159.0000     496
159.0200     493
159.0400     503
159.0600     519
159.0800     530
159.1000     534
159.1200     505
159.1400     470
159.1600     471
159.1800     483
159.2000     474
159.2200     458
159.2400     452
159.2600     453
159.2800     474
159.3000     497
159.3200     498
159.3400     481
159.3600     416
159.3800     357
159.4000     423
159.4200     519
159.4400     517
159.4600     484
159.4800     499
159.5000     523
159.5200     495
159.5400     456
159.5600     461
159.5800     469
159.6000     412
159.6200     344
159.6400     356
159.6600     395
159.6800     412
159.7000     413
159.7200     376
159.7400     338
159.7600     368
159.7800     426
159.8000     486
159.8200     537
159.8400     545
159.8600     527
159.8800     469
159.9000     405
159.9200     394
159.9400     403
159.9600     407
159.9800     416
160.0000     457
160.0200     502
160.0400     502
160.0600     490
160.0800     509
160.1000     533
160.1200     516
160.1400     479
160.1600     428
160.1800     378
160.2000     358
160.2200     349
160.2400     335
160.2600     330
160.2800     379
160.3000     433
160.3200     412
160.3400     370
160.3600     380
160.3800     405
160.4000     405
160.4200     390
160.4400     351
160.4600     310
160.4800     299
160.5000     311
160.5200     375
160.5400     443
160.5600     429
160.5800     393
160.6000     409
160.6200     434
160.6400     407
160.6600     367
160.6800     367
160.7000     380
160.7200     378
160.7400     374
160.7600     385
160.7800     393
160.8000     351
160.8200     303
160.8400     325
160.8600     377
160.8800     436
160.9000     487
160.9200     486
160.9400     466
160.9600     454
160.9800     446
161.0000     435
161.0200     418
161.0400     379
161.0600     337
161.0800     325
161.1000     328
161.1200     345
161.1400     371
161.1600     418
161.1800     458
161.2000     415
161.2200     351
161.2400     349
161.2600     369
161.2800     382
161.3000     375
161.3200     283
161.3400     182
161.3600     206
161.3800     271
161.4000     289
161.4200     296
161.4400     338
161.4600     382
161.4800     365
161.5000     332
161.5200     347
161.5400     362
161.5600     284
161.5800     205
161.6000     313
161.6200     457
161.6400     412
161.6600     307
161.6800     272
161.7000     272
161.7200     302
161.7400     339
161.7600     348
161.7800     338
161.8000     293
161.8200     240
161.8400     224
161.8600     230
161.8800     281
161.9000     331
161.9200     293
161.9400     233
161.9600     248
161.9800     286