File: XRD_Tool/XRD_Tool/bin/Debug/LDA_sample_name_56789_Psi-15_20180603-122805.txt
128.0000     255
128.0400     290
128.0800     278
128.1200     265
128.1600     223
128.2000     247
128.2400     241
128.2800     237
128.3200     254
128.3600     257
128.4000     233
128.4400     233
128.4800     285
128.5200     281
128.5600     260
128.6000     250
128.6400     243
128.6800     256
128.7200     241
128.7600     264
128.8000     273
128.8400     244
128.8800     257
128.9200     261
128.9600     233
129.0000     286
129.0400     278
129.0800     268
129.1200     256
129.1600     257
129.2000     228
129.2400     246
129.2800     236
129.3200     299
129.3600     248
129.4000     268
129.4400     250
129.4800     266
129.5200     285
129.5600     265
129.6000     265
129.6400     232
129.6800     222
129.7200     263
129.7600     296
129.8000     257
129.8400     280
129.8800     251
129.9200     250
129.9600     271
130.0000     240
130.0400     243
130.0800     270
130.1200     260
130.1600     271
130.2000     267
130.2400     251
130.2800     240
130.3200     262
130.3600     272
130.4000     277
130.4400     253
130.4800     270
130.5200     261
130.5600     283
130.6000     284
130.6400     274
130.6800     244
130.7200     251
130.7600     288
130.8000     255
130.8400     277
130.8800     258
130.9200     261
130.9600     271
131.0000     276
131.0400     266
131.0800     241
131.1200     252
131.1600     256
131.2000     280
131.2400     241
131.2800     261
131.3200     248
131.3600     256
131.4000     283
131.4400     244
131.4800     239
131.5200     240
131.5600     283
131.6000     291
131.6400     240
131.6800     253
131.7200     282
131.7600     257
131.8000     233
131.8400     259
131.8800     243
131.9200     258
131.9600     264
132.0000     250
132.0400     258
132.0800     237
132.1200     237
132.1600     270
132.2000     261
132.2400     261
132.2800     253
132.3200     267
132.3600     233
132.4000     259
132.4400     258
132.4800     284
132.5200     294
132.5600     238
132.6000     278
132.6400     265
132.6800     276
132.7200     281
132.7600     260
132.8000     274
132.8400     249
132.8800     248
132.9200     263
132.9600     297
133.0000     264
133.0400     264
133.0800     266
133.1200     255
133.1600     245
133.2000     286
133.2400     269
133.2800     260
133.3200     260
133.3600     259
133.4000     261
133.4400     262
133.4800     283
133.5200     261
133.5600     266
133.6000     240
133.6400     263
133.6800     291
133.7200     282
133.7600     245
133.8000     263
133.8400     273
133.8800     288
133.9200     258
133.9600     274
134.0000     301
134.0400     260
134.0800     272
134.1200     273
134.1600     288
134.2000     247
134.2400     261
134.2800     258
134.3200     281
134.3600     296
134.4000     286
134.4400     265
134.4800     250
134.5200     264
134.5600     240
134.6000     299
134.6400     260
134.6800     263
134.7200     278
134.7600     260
134.8000     244
134.8400     274
134.8800     230
134.9200     271
134.9600     260
135.0000     240
135.0400     286
135.0800     261
135.1200     263
135.1600     271
135.2000     262
135.2400     291
135.2800     296
135.3200     259
135.3600     267
135.4000     291
135.4400     237
135.4800     259
135.5200     268
135.5600     279
135.6000     278
135.6400     265
135.6800     282
135.7200     286
135.7600     272
135.8000     298
135.8400     236
135.8800     265
135.9200     278
135.9600     255
136.0000     266
136.0400     280
136.0800     259
136.1200     297
136.1600     279
136.2000     260
136.2400     259
136.2800     266
136.3200     245
136.3600     268
136.4000     280
136.4400     282
136.4800     249
136.5200     273
136.5600     243
136.6000     251
136.6400     261
136.6800     303
136.7200     262
136.7600     267
136.8000     248
136.8400     278
136.8800     245
136.9200     270
136.9600     286
137.0000     249
137.0400     274
137.0800     281
137.1200     286
137.1600     269
137.2000     278
137.2400     268
137.2800     272
137.3200     275
137.3600     263
137.4000     270
137.4400     254
137.4800     301
137.5200     266
137.5600     311
137.6000     282
137.6400     263
137.6800     252
137.7200     248
137.7600     283
137.8000     277
137.8400     281
137.8800     277
137.9200     290
137.9600     301
138.0000     304
138.0400     261
138.0800     276
138.1200     273
138.1600     262
138.2000     316
138.2400     270
138.2800     261
138.3200     282
138.3600     294
138.4000     275
138.4400     272
138.4800     299
138.5200     258
138.5600     272
138.6000     275
138.6400     277
138.6800     266
138.7200     286
138.7600     276
138.8000     269
138.8400     280
138.8800     269
138.9200     261
138.9600     257
139.0000     326
139.0400     270
139.0800     284
139.1200     256
139.1600     278
139.2000     282
139.2400     271
139.2800     261
139.3200     273
139.3600     257
139.4000     267
139.4400     249
139.4800     292
139.5200     260
139.5600     272
139.6000     291
139.6400     256
139.6800     288
139.7200     286
139.7600     282
139.8000     295
139.8400     313
139.8800     287
139.9200     271
139.9600     280
140.0000     281
140.0400     261
140.0800     285
140.1200     265
140.1600     255
140.2000     261
140.2400     264
140.2800     259
140.3200     297
140.3600     299
140.4000     279
140.4400     271
140.4800     262
140.5200     285
140.5600     267
140.6000     281
140.6400     321
140.6800     284
140.7200     277
140.7600     255
140.8000     246
140.8400     281
140.8800     262
140.9200     275
140.9600     313
141.0000     287
141.0400     266
141.0800     278
141.1200     269
141.1600     246
141.2000     265
141.2400     243
141.2800     295
141.3200     270
141.3600     304
141.4000     302
141.4400     289
141.4800     284
141.5200     270
141.5600     301
141.6000     285
141.6400     268
141.6800     254
141.7200     307
141.7600     283
141.8000     293
141.8400     262
141.8800     240
141.9200     289
141.9600     259
142.0000     294
142.0400     301
142.0800     249
142.1200     250
142.1600     274
142.2000     271
142.2400     278
142.2800     266
142.3200     299
142.3600     277
142.4000     276
142.4400     285
142.4800     299
142.5200     290
142.5600     250
142.6000     269
142.6400     268
142.6800     290
142.7200     258
142.7600     281
142.8000     271
142.8400     293
142.8800     262
142.9200     273
142.9600     251
143.0000     291
143.0400     269
143.0800     277
143.1200     259
143.1600     291
143.2000     269
143.2400     290
143.2800     268
143.3200     258
143.3600     280
143.4000     296
143.4400     284
143.4800     293
143.5200     281
143.5600     274
143.6000     281
143.6400     272
143.6800     290
143.7200     285
143.7600     269
143.8000     303
143.8400     301
143.8800     310
143.9200     287
143.9600     261
144.0000     273
144.0400     273
144.0800     272
144.1200     283
144.1600     287
144.2000     268
144.2400     251
144.2800     289
144.3200     288
144.3600     286
144.4000     287
144.4400     258
144.4800     313
144.5200     288
144.5600     256
144.6000     324
144.6400     275
144.6800     278
144.7200     271
144.7600     270
144.8000     280
144.8400     266
144.8800     256
144.9200     302
144.9600     291
145.0000     290
145.0400     274
145.0800     259
145.1200     314
145.1600     285
145.2000     251
145.2400     279
145.2800     284
145.3200     281
145.3600     288
145.4000     272
145.4400     264
145.4800     293
145.5200     270
145.5600     266
145.6000     277
145.6400     283
145.6800     282
145.7200     297
145.7600     241
145.8000     281
145.8400     259
145.8800     283
145.9200     292
145.9600     278
146.0000     263
146.0400     291
146.0800     244
146.1200     305
146.1600     256
146.2000     282
146.2400     280
146.2800     247
146.3200     241
146.3600     274
146.4000     286
146.4400     289
146.4800     261
146.5200     270
146.5600     282
146.6000     261
146.6400     261
146.6800     270
146.7200     300
146.7600     257
146.8000     281
146.8400     285
146.8800     317
146.9200     251
146.9600     282
147.0000     263
147.0400     256
147.0800     298
147.1200     295
147.1600     268
147.2000     289
147.2400     295
147.2800     273
147.3200     284
147.3600     293
147.4000     254
147.4400     284
147.4800     260
147.5200     272
147.5600     321
147.6000     249
147.6400     269
147.6800     285
147.7200     292
147.7600     289
147.8000     259
147.8400     295
147.8800     266
147.9200     271
147.9600     294
148.0000     258
148.0400     258
148.0800     308
148.1200     310
148.1600     291
148.2000     276
148.2400     276
148.2800     280
148.3200     260
148.3600     260
148.4000     247
148.4400     257
148.4800     324
148.5200     285
148.5600     295
148.6000     268
148.6400     277
148.6800     300
148.7200     287
148.7600     287
148.8000     269
148.8400     282
148.8800     260
148.9200     253
148.9600     277
149.0000     264
149.0400     329
149.0800     274
149.1200     261
149.1600     286
149.2000     270
149.2400     264
149.2800     296
149.3200     283
149.3600     302
149.4000     251
149.4400     250
149.4800     258
149.5200     272
149.5600     280
149.6000     309
149.6400     306
149.6800     307
149.7200     267
149.7600     250
149.8000     307
149.8400     270
149.8800     269
149.9200     281
149.9600     304
150.0000     312
150.0400     316
150.0800     304
150.1200     306
150.1600     288
150.2000     313
150.2400     303
150.2800     301
150.3200     285
150.3600     284
150.4000     296
150.4400     294
150.4800     251
150.5200     285
150.5600     288
150.6000     270
150.6400     294
150.6800     265
150.7200     285
150.7600     291
150.8000     291
150.8400     329
150.8800     262
150.9200     300
150.9600     311
151.0000     260
151.0400     305
151.0800     296
151.1200     295
151.1600     297
151.2000     289
151.2400     322
151.2800     269
151.3200     277
151.3600     283
151.4000     280
151.4400     287
151.4800     292
151.5200     281
151.5600     285
151.6000     278
151.6400     303
151.6800     280
151.7200     293
151.7600     275
151.8000     289
151.8400     265
151.8800     306
151.9200     330
151.9600     272