File: XRD_Tool/XRD_Tool/bin/Debug/LDA_sample_name_56789_Psi-0_20180603-123016.txt
143.0000     242
143.0400     265
143.0800     284
143.1200     237
143.1600     252
143.2000     230
143.2400     243
143.2800     283
143.3200     252
143.3600     269
143.4000     265
143.4400     280
143.4800     268
143.5200     293
143.5600     254
143.6000     290
143.6400     271
143.6800     269
143.7200     270
143.7600     262
143.8000     270
143.8400     239
143.8800     262
143.9200     248
143.9600     291
144.0000     247
144.0400     246
144.0800     265
144.1200     271
144.1600     256
144.2000     284
144.2400     254
144.2800     306
144.3200     264
144.3600     256
144.4000     265
144.4400     269
144.4800     288
144.5200     264
144.5600     278
144.6000     280
144.6400     275
144.6800     234
144.7200     286
144.7600     257
144.8000     269
144.8400     235
144.8800     255
144.9200     245
144.9600     236
145.0000     276
145.0400     265
145.0800     246
145.1200     240
145.1600     270
145.2000     257
145.2400     244
145.2800     251
145.3200     256
145.3600     246
145.4000     248
145.4400     258
145.4800     252
145.5200     256
145.5600     221
145.6000     266
145.6400     276
145.6800     260
145.7200     257
145.7600     266
145.8000     260
145.8400     232
145.8800     261
145.9200     284
145.9600     244
146.0000     258
146.0400     266
146.0800     234
146.1200     300
146.1600     284
146.2000     269
146.2400     279
146.2800     269
146.3200     274
146.3600     239
146.4000     282
146.4400     261
146.4800     275
146.5200     253
146.5600     251
146.6000     261
146.6400     274
146.6800     267
146.7200     266
146.7600     258
146.8000     255
146.8400     277
146.8800     273
146.9200     250
146.9600     242
147.0000     243
147.0400     261
147.0800     280
147.1200     310
147.1600     246
147.2000     242
147.2400     251
147.2800     261
147.3200     273
147.3600     284
147.4000     301
147.4400     280
147.4800     293
147.5200     283
147.5600     292
147.6000     287
147.6400     297
147.6800     282
147.7200     267
147.7600     254
147.8000     280
147.8400     311
147.8800     272
147.9200     310
147.9600     277
148.0000     279
148.0400     283
148.0800     274
148.1200     308
148.1600     304
148.2000     283
148.2400     287
148.2800     315
148.3200     265
148.3600     289
148.4000     297
148.4400     259
148.4800     305
148.5200     327
148.5600     272
148.6000     270
148.6400     246
148.6800     267
148.7200     271
148.7600     280
148.8000     276
148.8400     307
148.8800     292
148.9200     261
148.9600     281
149.0000     294
149.0400     279
149.0800     296
149.1200     284
149.1600     276
149.2000     286
149.2400     290
149.2800     314
149.3200     300
149.3600     264
149.4000     283
149.4400     279
149.4800     308
149.5200     299
149.5600     287
149.6000     311
149.6400     297
149.6800     296
149.7200     297
149.7600     294
149.8000     320
149.8400     273
149.8800     323
149.9200     294
149.9600     326
150.0000     315
150.0400     287
150.0800     328
150.1200     309
150.1600     326
150.2000     312
150.2400     293
150.2800     327
150.3200     340
150.3600     335
150.4000     324
150.4400     337
150.4800     300
150.5200     323
150.5600     332
150.6000     332
150.6400     326
150.6800     349
150.7200     305
150.7600     359
150.8000     309
150.8400     284
150.8800     309
150.9200     317
150.9600     359
151.0000     349
151.0400     329
151.0800     329
151.1200     345
151.1600     339
151.2000     304
151.2400     368
151.2800     335
151.3200     359
151.3600     359
151.4000     347
151.4400     363
151.4800     371
151.5200     365
151.5600     362
151.6000     371
151.6400     366
151.6800     350
151.7200     363
151.7600     390
151.8000     413
151.8400     402
151.8800     369
151.9200     388
151.9600     418
152.0000     396
152.0400     396
152.0800     406
152.1200     411
152.1600     417
152.2000     413
152.2400     462
152.2800     418
152.3200     421
152.3600     436
152.4000     479
152.4400     527
152.4800     498
152.5200     461
152.5600     519
152.6000     551
152.6400     505
152.6800     546
152.7200     574
152.7600     541
152.8000     557
152.8400     536
152.8800     646
152.9200     602
152.9600     613
153.0000     593
153.0400     680
153.0800     642
153.1200     579
153.1600     677
153.2000     615
153.2400     704
153.2800     701
153.3200     687
153.3600     720
153.4000     710
153.4400     675
153.4800     731
153.5200     734
153.5600     790
153.6000     704
153.6400     737
153.6800     717
153.7200     749
153.7600     731
153.8000     764
153.8400     772
153.8800     762
153.9200     791
153.9600     806
154.0000     773
154.0400     717
154.0800     789
154.1200     729
154.1600     787
154.2000     820
154.2400     744
154.2800     810
154.3200     800
154.3600     777
154.4000     788
154.4400     767
154.4800     772
154.5200     771
154.5600     754
154.6000     743
154.6400     742
154.6800     767
154.7200     728
154.7600     737
154.8000     804
154.8400     706
154.8800     693
154.9200     693
154.9600     690
155.0000     687
155.0400     687
155.0800     682
155.1200     641
155.1600     652
155.2000     651
155.2400     608
155.2800     650
155.3200     643
155.3600     662
155.4000     570
155.4400     618
155.4800     611
155.5200     614
155.5600     584
155.6000     590
155.6400     565
155.6800     512
155.7200     578
155.7600     540
155.8000     505
155.8400     518
155.8800     468
155.9200     463
155.9600     536
156.0000     506
156.0400     474
156.0800     487
156.1200     443
156.1600     460
156.2000     506
156.2400     477
156.2800     454
156.3200     464
156.3600     447
156.4000     438
156.4400     451
156.4800     462
156.5200     422
156.5600     437
156.6000     418
156.6400     422
156.6800     414
156.7200     419
156.7600     388
156.8000     389
156.8400     385
156.8800     407
156.9200     395
156.9600     409
157.0000     390
157.0400     422
157.0800     411
157.1200     379
157.1600     371
157.2000     378
157.2400     354
157.2800     349
157.3200     403
157.3600     382
157.4000     344
157.4400     385
157.4800     364
157.5200     376
157.5600     360
157.6000     384
157.6400     380
157.6800     367
157.7200     341
157.7600     379
157.8000     374
157.8400     327
157.8800     356
157.9200     383
157.9600     334
158.0000     350
158.0400     345
158.0800     323
158.1200     349
158.1600     354
158.2000     326
158.2400     366
158.2800     302
158.3200     314
158.3600     302
158.4000     323
158.4400     299
158.4800     353
158.5200     321
158.5600     282
158.6000     304
158.6400     321
158.6800     313
158.7200     311
158.7600     299
158.8000     341
158.8400     308
158.8800     339
158.9200     349
158.9600     293
159.0000     332
159.0400     326
159.0800     292
159.1200     308
159.1600     315
159.2000     304
159.2400     287
159.2800     313
159.3200     313
159.3600     310
159.4000     321
159.4400     301
159.4800     315
159.5200     307
159.5600     316
159.6000     288
159.6400     295
159.6800     320
159.7200     278
159.7600     277
159.8000     320
159.8400     312
159.8800     302
159.9200     312
159.9600     322
160.0000     312
160.0400     290
160.0800     309
160.1200     256
160.1600     303
160.2000     263
160.2400     268
160.2800     279
160.3200     273
160.3600     307
160.4000     283
160.4400     295
160.4800     295
160.5200     299
160.5600     281
160.6000     300
160.6400     309
160.6800     289
160.7200     256
160.7600     284
160.8000     298
160.8400     272
160.8800     295
160.9200     345
160.9600     289
161.0000     298
161.0400     275
161.0800     280
161.1200     289
161.1600     296
161.2000     308
161.2400     284
161.2800     316
161.3200     284
161.3600     308
161.4000     265
161.4400     300
161.4800     280
161.5200     292
161.5600     287
161.6000     283
161.6400     229
161.6800     266
161.7200     266
161.7600     275
161.8000     267
161.8400     253
161.8800     292
161.9200     273
161.9600     266
162.0000     273
162.0400     252
162.0800     273
162.1200     302
162.1600     279
162.2000     291
162.2400     312
162.2800     284
162.3200     274
162.3600     242
162.4000     305
162.4400     308
162.4800     290
162.5200     268
162.5600     274
162.6000     299
162.6400     261
162.6800     271
162.7200     302
162.7600     288
162.8000     297
162.8400     287
162.8800     294
162.9200     288
162.9600     262
163.0000     283
163.0400     283
163.0800     257
163.1200     284
163.1600     284
163.2000     285
163.2400     281
163.2800     284
163.3200     294
163.3600     283
163.4000     270
163.4400     274
163.4800     302
163.5200     299
163.5600     253
163.6000     271
163.6400     282
163.6800     293
163.7200     248
163.7600     275
163.8000     259
163.8400     279
163.8800     266
163.9200     267
163.9600     296
164.0000     276
164.0400     294
164.0800     290
164.1200     276
164.1600     278
164.2000     268
164.2400     259
164.2800     249
164.3200     269
164.3600     270
164.4000     285
164.4400     275
164.4800     279
164.5200     272
164.5600     255
164.6000     282
164.6400     264
164.6800     274
164.7200     271
164.7600     264
164.8000     284
164.8400     251
164.8800     272
164.9200     243
164.9600     256
165.0000     285
165.0400     272
165.0800     276
165.1200     275
165.1600     237
165.2000     250
165.2400     260
165.2800     272
165.3200     285
165.3600     247
165.4000     279
165.4400     263
165.4800     253
165.5200     268
165.5600     280
165.6000     271
165.6400     259
165.6800     292
165.7200     265
165.7600     261
165.8000     250
165.8400     260
165.8800     290
165.9200     271
165.9600     277
166.0000     278
166.0400     266
166.0800     243
166.1200     252
166.1600     263
166.2000     239
166.2400     240
166.2800     261
166.3200     271
166.3600     266
166.4000     266
166.4400     273
166.4800     268
166.5200     259
166.5600     280
166.6000     267
166.6400     268
166.6800     247
166.7200     259
166.7600     263
166.8000     277
166.8400     260
166.8800     264
166.9200     266
166.9600     262