File: XRD_Tool/XRD_Tool/bin/Debug/LDA_sample_name_56789_Psi-24_20180623-125737.txt
138.0000      93
138.0200     113
138.0400     126
138.0600     136
138.0800     144
138.1000     149
138.1200     136
138.1400     120
138.1600     122
138.1800     130
138.2000     126
138.2200     116
138.2400      95
138.2600      72
138.2800      65
138.3000      69
138.3200      92
138.3400     116
138.3600     113
138.3800     100
138.4000      90
138.4200      80
138.4400      57
138.4600      38
138.4800      66
138.5000     104
138.5200     105
138.5400      90
138.5600      72
138.5800      58
138.6000      74
138.6200      96
138.6400      88
138.6600      75
138.6800      97
138.7000     124
138.7200     109
138.7400      80
138.7600      65
138.7800      60
138.8000      83
138.8200     113
138.8400     120
138.8600     117
138.8800     109
138.9000     100
138.9200      96
138.9400      93
138.9600      86
138.9800      81
139.0000      90
139.0200     102
139.0400     107
139.0600     109
139.0800     108
139.1000     107
139.1200     116
139.1400     123
139.1600     107
139.1800      83
139.2000      72
139.2200      70
139.2400      86
139.2600     106
139.2800     101
139.3000      88
139.3200      77
139.3400      68
139.3600      64
139.3800      65
139.4000      81
139.4200      95
139.4400      74
139.4600      47
139.4800      67
139.5000      99
139.5200     101
139.5400      92
139.5600      91
139.5800      89
139.6000      65
139.6200      42
139.6400      61
139.6600      91
139.6800      91
139.7000      82
139.7200      88
139.7400      96
139.7600      84
139.7800      71
139.8000      91
139.8200     116
139.8400      94
139.8600      60
139.8800      55
139.9000      61
139.9200      68
139.9400      74
139.9600      70
139.9800      69
140.0000     100
140.0200     137
140.0400     139
140.0600     126
140.0800     108
140.1000      90
140.1200      84
140.1400      82
140.1600      85
140.1800      88
140.2000      84
140.2200      77
140.2400      63
140.2600      53
140.2800      68
140.3000      92
140.3200     108
140.3400     115
140.3600     100
140.3800      77
140.4000      54
140.4200      38
140.4400      50
140.4600      71
140.4800      72
140.5000      68
140.5200      74
140.5400      83
140.5600      89
140.5800      92
140.6000      93
140.6200      95
140.6400     102
140.6600     107
140.6800      84
140.7000      56
140.7200      58
140.7400      68
140.7600      61
140.7800      51
140.8000      59
140.8200      76
140.8400      93
140.8600     106
140.8800      91
140.9000      71
140.9200      84
140.9400     105
140.9600     103
140.9800      93
141.0000      93
141.0200      93
141.0400      76
141.0600      59
141.0800      72
141.1000      91
141.1200      75
141.1400      54
141.1600      80
141.1800     117
141.2000     119
141.2200     106
141.2400      90
141.2600      78
141.2800      97
141.3000     123
141.3200     116
141.3400      97
141.3600      81
141.3800      72
141.4000      88
141.4200     111
141.4400     121
141.4600     120
141.4800      94
141.5000      65
141.5200      69
141.5400      84
141.5600      84
141.5800      79
141.6000      76
141.6200      76
141.6400      91
141.6600     106
141.6800      96
141.7000      80
141.7200      87
141.7400     100
141.7600      93
141.7800      80
141.8000      69
141.8200      64
141.8400      84
141.8600     107
141.8800     100
141.9000      83
141.9200      81
141.9400      84
141.9600      84
141.9800      81
142.0000      76
142.0200      72
142.0400      80
142.0600      88
142.0800      79
142.1000      68
142.1200      82
142.1400     101
142.1600      90
142.1800      69
142.2000      53
142.2200      45
142.2400      69
142.2600     100
142.2800     104
142.3000      96
142.3200      80
142.3400      65
142.3600      78
142.3800     102
142.4000     121
142.4200     131
142.4400     101
142.4600      64
142.4800      70
142.5000      90
142.5200      85
142.5400      75
142.5600      85
142.5800     100
142.6000      97
142.6200      89
142.6400      94
142.6600     100
142.6800      83
142.7000      64
142.7200      83
142.7400     110
142.7600     104
142.7800      87
142.8000      83
142.8200      85
142.8400      84
142.8600      83
142.8800      90
142.9000      98
142.9200      93
142.9400      84
142.9600      81
142.9800      79
143.0000      66
143.0200      53
143.0400      66
143.0600      87
143.0800      90
143.1000      89
143.1200     106
143.1400     127
143.1600     133
143.1800     131
143.2000     114
143.2200      92
143.2400      72
143.2600      58
143.2800      74
143.3000      99
143.3200     111
143.3400     111
143.3600      81
143.3800      51
143.4000      81
143.4200     124
143.4400     115
143.4600      86
143.4800      59
143.5000      42
143.5200      71
143.5400     108
143.5600      89
143.5800      56
143.6000      71
143.6200     100
143.6400     106
143.6600     101
143.6800      91
143.7000      80
143.7200      76
143.7400      74
143.7600      75
143.7800      76
143.8000      70
143.8200      66
143.8400      81
143.8600      98
143.8800      90
143.9000      76
143.9200      85
143.9400     101
143.9600     105
143.9800     107
144.0000     118
144.0200     126
144.0400     109
144.0600      87
144.0800      97
144.1000     117
144.1200     128
144.1400     132
144.1600     113
144.1800      91
144.2000      97
144.2200     109
144.2400      93
144.2600      68
144.2800      60
144.3000      58
144.3200      61
144.3400      68
144.3600      88
144.3800     109
144.4000     102
144.4200      85
144.4400      73
144.4600      65
144.4800      67
144.5000      75
144.5200      93
144.5400     109
144.5600      95
144.5800      73
144.6000      74
144.6200      82
144.6400      82
144.6600      79
144.6800      83
144.7000      85
144.7200      67
144.7400      49
144.7600      72
144.7800     106
144.8000     110
144.8200     103
144.8400      98
144.8600      93
144.8800      86
144.9000      77
144.9200      58
144.9400      40
144.9600      39
144.9800      46
145.0000      59
145.0200      75
145.0400      88
145.0600      99
145.0800     103
145.1000     103
145.1200      90
145.1400      73
145.1600      64
145.1800      58
145.2000      52
145.2200      46
145.2400      37
145.2600      32
145.2800      53
145.3000      81
145.3200      86
145.3400      81
145.3600      73
145.3800      65
145.4000      67
145.4200      71
145.4400      66
145.4600      62
145.4800      73
145.5000      88
145.5200      86
145.5400      79
145.5600      74
145.5800      71
145.6000      75
145.6200      82
145.6400      99
145.6600     117
145.6800     125
145.7000     123
145.7200      93
145.7400      60
145.7600      75
145.7800     102
145.8000      91
145.8200      69
145.8400      72
145.8600      85
145.8800     101
145.9000     115
145.9200     106
145.9400      90
145.9600      87
145.9800      88
146.0000      86
146.0200      81
146.0400      73
146.0600      66
146.0800      75
146.1000      90
146.1200     100
146.1400     105
146.1600      95
146.1800      80
146.2000      69
146.2200      61
146.2400      64
146.2600      73
146.2800      84
146.3000      98
146.3200     120
146.3400     139
146.3600     123
146.3800      95
146.4000      79
146.4200      72
146.4400      90
146.4600     114
146.4800     116
146.5000     110
146.5200     101
146.5400      94
146.5600     102
146.5800     113
146.6000     112
146.6200     104
146.6400      88
146.6600      71
146.6800      69
146.7000      72
146.7200      72
146.7400      72
146.7600      87
146.7800     102
146.8000      90
146.8200      75
146.8400      93
146.8600     118
146.8800     103
146.9000      78
146.9200      76
146.9400      78
146.9600      50
146.9800      20
147.0000      40
147.0200      76
147.0400      89
147.0600      93
147.0800     100
147.1000     108
147.1200     111
147.1400     114
147.1600     122
147.1800     127
147.2000     107
147.2200      83
147.2400      87
147.2600      97
147.2800      72
147.3000      43
147.3200      59
147.3400      87
147.3600      82
147.3800      70
147.4000      93
147.4200     125
147.4400     135
147.4600     133
147.4800     108
147.5000      77
147.5200      61
147.5400      53
147.5600      56
147.5800      68
147.6000      97
147.6200     122
147.6400      92
147.6600      49
147.6800      54
147.7000      76
147.7200      83
147.7400      82
147.7600      64
147.7800      53
147.8000     102
147.8200     160
147.8400     135
147.8600      85
147.8800      75
147.9000      80
147.9200      85
147.9400      86
147.9600      70
147.9800      51
148.0000      45
148.0200      47
148.0400      58
148.0600      68
148.0800      59
148.1000      44
148.1200      34
148.1400      31
148.1600      50
148.1800      74
148.2000      78
148.2200      74
148.2400      70
148.2600      68
148.2800      76
148.3000      86
148.3200      89
148.3400      92
148.3600     105
148.3800     117
148.4000      97
148.4200      72
148.4400      81
148.4600      96
148.4800      81
148.5000      59
148.5200      67
148.5400      85
148.5600      95
148.5800     101
148.6000     108
148.6200     110
148.6400      82
148.6600      50
148.6800      55
148.7000      72
148.7200      77
148.7400      82
148.7600     111
148.7800     142
148.8000     141
148.8200     126
148.8400     104
148.8600      83
148.8800      72
148.9000      69
148.9200      81
148.9400      95
148.9600      87
148.9800      76
149.0000      89
149.0200     105
149.0400      96
149.0600      79
149.0800      79
149.1000      82
149.1200      70
149.1400      54
149.1600      49
149.1800      53
149.2000      77
149.2200     103
149.2400      98
149.2600      82
149.2800      77
149.3000      75
149.3200      60
149.3400      49
149.3600      83
149.3800     128
149.4000     141
149.4200     137
149.4400     110
149.4600      78
149.4800      69
149.5000      70
149.5200      73
149.5400      75
149.5600      69
149.5800      61
149.6000      66
149.6200      75
149.6400      79
149.6600      81
149.6800      83
149.7000      82
149.7200      66
149.7400      49
149.7600      59
149.7800      77
149.8000      87
149.8200      90
149.8400      79
149.8600      69
149.8800      84
149.9000     106
149.9200     108
149.9400      99
149.9600      77
149.9800      53
150.0000      49
150.0200      53
150.0400      60
150.0600      68
150.0800      75
150.1000      80
150.1200      81
150.1400      82
150.1600      88
150.1800      94
150.2000      87
150.2200      77
150.2400      77
150.2600      81
150.2800      85
150.3000      91
150.3200     107
150.3400     121
150.3600     107
150.3800      86
150.4000      95
150.4200     111
150.4400     107
150.4600      93
150.4800      71
150.5000      52
150.5200      69
150.5400      98
150.5600     109
150.5800     111
150.6000     105
150.6200      97
150.6400      99
150.6600     104
150.6800     104
150.7000     101
150.7200      96
150.7400      91
150.7600      88
150.7800      85
150.8000      82
150.8200      79
150.8400      79
150.8600      84
150.8800     102
150.9000     121
150.9200     110
150.9400      91
150.9600      85
150.9800      89
151.0000     108
151.0200     127
151.0400     108
151.0600      76
151.0800      55
151.1000      45
151.1200      60
151.1400      82
151.1600      86
151.1800      82
151.2000      78
151.2200      75
151.2400      79
151.2600      83
151.2800      80
151.3000      76
151.3200      80
151.3400      87
151.3600      88
151.3800      88
151.4000      98
151.4200     109
151.4400     106
151.4600      98
151.4800      89
151.5000      80
151.5200      77
151.5400      78
151.5600      79
151.5800      83
151.6000      99
151.6200     114
151.6400     106
151.6600      89
151.6800      82
151.7000      79
151.7200      81
151.7400      86
151.7600      94
151.7800     104
151.8000     112
151.8200     117
151.8400     106
151.8600      91
151.8800      91
151.9000      95
151.9200      92
151.9400      87
151.9600      87
151.9800      87
152.0000      74
152.0200      57
152.0400      46
152.0600      42
152.0800      57
152.1000      74
152.1200      71
152.1400      64
152.1600      80
152.1800      98
152.2000      78
152.2200      48
152.2400      51
152.2600      65
152.2800      64
152.3000      61
152.3200      70
152.3400      83
152.3600      94
152.3800     101
152.4000      90
152.4200      72
152.4400      57
152.4600      46
152.4800      48
152.5000      54
152.5200      50
152.5400      46
152.5600      61
152.5800      79
152.6000      82
152.6200      77
152.6400      69
152.6600      61
152.6800      66
152.7000      74
152.7200      74
152.7400      72
152.7600      82
152.7800      95
152.8000     104
152.8200     111
152.8400     108
152.8600     103
152.8800     100
152.9000     100
152.9200     110
152.9400     118
152.9600      97
152.9800      70
153.0000      63
153.0200      68
153.0400      90
153.0600     111
153.0800      95
153.1000      72
153.1200      86
153.1400     108
153.1600      98
153.1800      81
153.2000      86
153.2200      94
153.2400      75
153.2600      52
153.2800      62
153.3000      83
153.3200      86
153.3400      82
153.3600      81
153.3800      78
153.4000      55
153.4200      33
153.4400      48
153.4600      74
153.4800      80
153.5000      75
153.5200      60
153.5400      43
153.5600      41
153.5800      46
153.6000      58
153.6200      71
153.6400      84
153.6600      90
153.6800      69
153.7000      45
153.7200      61
153.7400      90
153.7600     104
153.7800     110
153.8000     105
153.8200      93
153.8400      72
153.8600      57
153.8800      82
153.9000     116
153.9200     110
153.9400      91
153.9600      87
153.9800      91
154.0000     105
154.0200     117
154.0400     101
154.0600      79
154.0800      89
154.1000     104
154.1200      87
154.1400      63
154.1600      66
154.1800      76
154.2000      69
154.2200      58
154.2400      60
154.2600      65
154.2800      52
154.3000      38
154.3200      57
154.3400      85
154.3600      88
154.3800      85
154.4000      95
154.4200     108
154.4400     106
154.4600      98
154.4800      87
154.5000      78
154.5200      87
154.5400     102
154.5600     107
154.5800     103
154.6000      69
154.6200      32
154.6400      42
154.6600      65
154.6800      66
154.7000      57
154.7200      43
154.7400      35
154.7600      66
154.7800     104
154.8000     102
154.8200      85
154.8400      74
154.8600      66
154.8800      53
154.9000      41
154.9200      36
154.9400      34
154.9600      37
154.9800      40
155.0000      40
155.0200      41
155.0400      57
155.0600      75
155.0800      74
155.1000      71
155.1200      92
155.1400     112
155.1600      87
155.1800      50
155.2000      51
155.2200      65
155.2400      66
155.2600      64
155.2800      75
155.3000      87
155.3200      74
155.3400      55
155.3600      51
155.3800      54
155.4000      60
155.4200      68
155.4400      73
155.4600      75
155.4800      65
155.5000      53
155.5200      48
155.5400      48
155.5600      61
155.5800      77
155.6000      81
155.6200      83
155.6400      94
155.6600     106
155.6800     113
155.7000     112
155.7200      88
155.7400      61
155.7600      69
155.7800      89
155.8000     102
155.8200     109
155.8400      99
155.8600      86
155.8800      87
155.9000      89
155.9200      72
155.9400      52
155.9600      49
155.9800      55
156.0000      69
156.0200      84
156.0400      81
156.0600      69
156.0800      47
156.1000      29
156.1200      52
156.1400      83
156.1600      64
156.1800      35
156.2000      53
156.2200      81
156.2400      71
156.2600      46
156.2800      29
156.3000      21
156.3200      45
156.3400      73
156.3600      64
156.3800      46
156.4000      53
156.4200      69
156.4400      73
156.4600      72
156.4800      66
156.5000      59
156.5200      52
156.5400      49
156.5600      63
156.5800      80
156.6000      84
156.6200      83
156.6400      92
156.6600     101
156.6800      95
156.7000      82
156.7200      64
156.7400      54
156.7600      92
156.7800     137
156.8000     115
156.8200      73
156.8400      61
156.8600      64
156.8800      82
156.9000      99
156.9200      81
156.9400      51
156.9600      28
156.9800      17
157.0000      53
157.0200      95
157.0400      78
157.0600      48
157.0800      68
157.1000     103
157.1200     112
157.1400     112
157.1600     122
157.1800     131
157.2000     116
157.2200      94
157.2400      77
157.2600      65
157.2800      63
157.3000      67
157.3200      79
157.3400      92
157.3600      89
157.3800      81
157.4000      84
157.4200      93
157.4400     107
157.4600     114
157.4800      71
157.5000      22
157.5200      40
157.5400      75
157.5600      63
157.5800      42
157.6000      64
157.6200      98
157.6400     102
157.6600      93
157.6800      74
157.7000      56
157.7200      60
157.7400      73
157.7600      91
157.7800     105
157.8000      87
157.8200      62
157.8400      62
157.8600      69
157.8800      61
157.9000      50
157.9200      54
157.9400      60
157.9600      46
157.9800      31
158.0000      48
158.0200      77
158.0400     106
158.0600     123
158.0800      85
158.1000      37
158.1200      49
158.1400      81
158.1600      91
158.1800      90
158.2000      72
158.2200      54
158.2400      61
158.2600      78
158.2800      92
158.3000      99
158.3200      83
158.3400      58
158.3600      43
158.3800      34
158.4000      43
158.4200      61
158.4400      88
158.4600     109
158.4800      88
158.5000      56
158.5200      52
158.5400      61
158.5600      74
158.5800      83
158.6000      70
158.6200      52
158.6400      51
158.6600      57
158.6800      66
158.7000      76
158.7200      86
158.7400      97
158.7600     110
158.7800     117
158.8000      92
158.8200      58
158.8400      41
158.8600      32
158.8800      29
158.9000      31
158.9200      40
158.9400      52
158.9600      64
158.9800      71
159.0000      55
159.0200      33
159.0400      36
159.0600      50
159.0800      74
159.1000     100
159.1200     114
159.1400     120
159.1600     108
159.1800      89
159.2000      77
159.2200      69
159.2400      72
159.2600      79
159.2800      80
159.3000      76
159.3200      62
159.3400      47
159.3600      50
159.3800      57
159.4000      46
159.4200      33
159.4400      48
159.4600      69
159.4800      67
159.5000      58
159.5200      67
159.5400      78
159.5600      64
159.5800      44
159.6000      41
159.6200      45
159.6400      47
159.6600      53
159.6800      76
159.7000     103
159.7200     118
159.7400     123
159.7600     101
159.7800      75
159.8000      74
159.8200      82
159.8400      78
159.8600      71
159.8800      64
159.9000      58
159.9200      50
159.9400      42
159.9600      29
159.9800      18
160.0000      22
160.0200      30
160.0400      28
160.0600      24
160.0800      32
160.1000      41
160.1200      35
160.1400      25
160.1600      28
160.1800      34
160.2000      29
160.2200      25
160.2400      52
160.2600      85
160.2800      80
160.3000      59
160.3200      35
160.3400      16
160.3600      33
160.3800      61
160.4000      68
160.4200      67
160.4400      76
160.4600      82
160.4800      60
160.5000      35
160.5200      56
160.5400      90
160.5600      91
160.5800      82
160.6000      91
160.6200     102
160.6400      83
160.6600      58
160.6800      56
160.7000      64
160.7200      71
160.7400      76
160.7600      79
160.7800      80
160.8000      73
160.8200      64
160.8400      65
160.8600      65
160.8800      47
160.9000      24
160.9200      16
160.9400      12
160.9600       1
160.9800      -4
161.0000      29
161.0200      71
161.0400      71
161.0600      57
161.0800      50
161.1000      46
161.1200      44
161.1400      42
161.1600      40
161.1800      41
161.2000      60
161.2200      83
161.2400      88
161.2600      82
161.2800      61
161.3000      40
161.3200      56
161.3400      81
161.3600      86
161.3800      81
161.4000      71
161.4200      62
161.4400      68
161.4600      75
161.4800      59
161.5000      38
161.5200      45
161.5400      58
161.5600      46
161.5800      30
161.6000      42
161.6200      60
161.6400      43
161.6600      18
161.6800      20
161.7000      33
161.7200      51
161.7400      68
161.7600      73
161.7800      73
161.8000      73
161.8200      77
161.8400      96
161.8600     114
161.8800      90
161.9000      57
161.9200      56
161.9400      69
161.9600      89
161.9800     103