File: XRD_Tool/XRD_Tool/bin/Debug/LDA_sample_name_56789_Psi-35_20180622-235722.txt
138.0000     209
138.0200     221
138.0400     256
138.0600     297
138.0800     322
138.1000     329
138.1200     286
138.1400     229
138.1600     210
138.1800     214
138.2000     253
138.2200     299
138.2400     303
138.2600     285
138.2800     234
138.3000     175
138.3200     139
138.3400     124
138.3600     161
138.3800     203
138.4000     168
138.4200     115
138.4400     127
138.4600     160
138.4800     168
138.5000     174
138.5200     220
138.5400     272
138.5600     276
138.5800     257
138.6000     225
138.6200     196
138.6400     212
138.6600     236
138.6800     215
138.7000     184
138.7200     200
138.7400     216
138.7600     142
138.7800      65
138.8000     158
138.8200     287
138.8400     264
138.8600     196
138.8800     203
138.9000     231
138.9200     211
138.9400     171
138.9600     129
138.9800     102
139.0000     148
139.0200     216
139.0400     239
139.0600     240
139.0800     213
139.1000     183
139.1200     198
139.1400     226
139.1600     236
139.1800     238
139.2000     240
139.2200     241
139.2400     238
139.2600     239
139.2800     260
139.3000     279
139.3200     241
139.3400     204
139.3600     279
139.3800     371
139.4000     323
139.4200     227
139.4400     174
139.4600     152
139.4800     199
139.5000     259
139.5200     254
139.5400     223
139.5600     199
139.5800     182
139.6000     193
139.6200     217
139.6400     253
139.6600     289
139.6800     307
139.7000     309
139.7200     271
139.7400     221
139.7600     194
139.7800     182
139.8000     202
139.8200     227
139.8400     220
139.8600     199
139.8800     170
139.9000     140
139.9200     123
139.9400     120
139.9600     159
139.9800     209
140.0000     227
140.0200     235
140.0400     255
140.0600     277
140.0800     291
140.1000     290
140.1200     239
140.1400     189
140.1600     247
140.1800     329
140.2000     313
140.2200     262
140.2400     238
140.2600     224
140.2800     210
140.3000     203
140.3200     234
140.3400     270
140.3600     256
140.3800     224
140.4000     202
140.4200     187
140.4400     189
140.4600     191
140.4800     166
140.5000     134
140.5200     122
140.5400     126
140.5600     165
140.5800     219
140.6000     271
140.6200     310
140.6400     283
140.6600     233
140.6800     208
140.7000     192
140.7200     174
140.7400     167
140.7600     213
140.7800     263
140.8000     223
140.8200     167
140.8400     206
140.8600     272
140.8800     275
140.9000     254
140.9200     243
140.9400     245
140.9600     297
140.9800     358
141.0000     367
141.0200     354
141.0400     333
141.0600     304
141.0800     252
141.1000     199
141.1200     192
141.1400     202
141.1600     199
141.1800     201
141.2000     253
141.2200     310
141.2400     292
141.2600     255
141.2800     273
141.3000     303
141.3200     283
141.3400     243
141.3600     205
141.3800     167
141.4000     129
141.4200     106
141.4400     158
141.4600     226
141.4800     224
141.5000     198
141.5200     192
141.5400     200
141.5600     238
141.5800     272
141.6000     229
141.6200     175
141.6400     223
141.6600     297
141.6800     303
141.7000     284
141.7200     280
141.7400     278
141.7600     256
141.7800     229
141.8000     220
141.8200     216
141.8400     202
141.8600     185
141.8800     170
141.9000     158
141.9200     156
141.9400     161
141.9600     184
141.9800     217
142.0000     263
142.0200     310
142.0400     332
142.0600     336
142.0800     295
142.1000     242
142.1200     212
142.1400     201
142.1600     234
142.1800     276
142.2000     278
142.2200     268
142.2400     279
142.2600     300
142.2800     321
142.3000     332
142.3200     285
142.3400     229
142.3600     248
142.3800     290
142.4000     304
142.4200     301
142.4400     273
142.4600     241
142.4800     239
142.5000     250
142.5200     271
142.5400     289
142.5600     280
142.5800     254
142.6000     193
142.6200     145
142.6400     225
142.6600     336
142.6800     342
142.7000     306
142.7200     267
142.7400     231
142.7600     213
142.7800     207
142.8000     219
142.8200     233
142.8400     217
142.8600     199
142.8800     226
142.9000     264
142.9200     264
142.9400     261
142.9600     326
142.9800     400
143.0000     383
143.0200     339
143.0400     350
143.0600     371
143.0800     340
143.1000     292
143.1200     263
143.1400     246
143.1600     257
143.1800     276
143.2000     282
143.2200     288
143.2400     326
143.2600     355
143.2800     279
143.3000     184
143.3200     205
143.3400     261
143.3600     254
143.3800     227
143.4000     228
143.4200     241
143.4400     259
143.4600     273
143.4800     252
143.5000     226
143.5200     238
143.5400     255
143.5600     217
143.5800     172
143.6000     201
143.6200     251
143.6400     261
143.6600     257
143.6800     264
143.7000     278
143.7200     297
143.7400     321
143.7600     355
143.7800     375
143.8000     305
143.8200     224
143.8400     265
143.8600     328
143.8800     257
143.9000     168
143.9200     251
143.9400     376
143.9600     366
143.9800     315
144.0000     327
144.0200     358
144.0400     356
144.0600     339
144.0800     320
144.1000     299
144.1200     273
144.1400     257
144.1600     298
144.1800     351
144.2000     349
144.2200     328
144.2400     322
144.2600     319
144.2800     303
144.3000     283
144.3200     274
144.3400     271
144.3600     273
144.3800     279
144.4000     294
144.4200     307
144.4400     300
144.4600     279
144.4800     231
144.5000     187
144.5200     213
144.5400     262
144.5600     288
144.5800     307
144.6000     343
144.6200     378
144.6400     378
144.6600     360
144.6800     325
144.7000     287
144.7200     271
144.7400     266
144.7600     279
144.7800     294
144.8000     279
144.8200     262
144.8400     292
144.8600     330
144.8800     320
144.9000     299
144.9200     326
144.9400     362
144.9600     346
144.9800     310
145.0000     274
145.0200     244
145.0400     241
145.0600     249
145.0800     255
145.1000     260
145.1200     262
145.1400     267
145.1600     299
145.1800     337
145.2000     355
145.2200     349
145.2400     264
145.2600     179
145.2800     249
145.3000     362
145.3200     379
145.3400     349
145.3600     282
145.3800     212
145.4000     204
145.4200     224
145.4400     266
145.4600     312
145.4800     341
145.5000     357
145.5200     340
145.5400     312
145.5600     294
145.5800     287
145.6000     316
145.6200     345
145.6400     296
145.6600     235
145.6800     272
145.7000     325
145.7200     262
145.7400     171
145.7600     180
145.7800     218
145.8000     208
145.8200     190
145.8400     235
145.8600     292
145.8800     282
145.9000     252
145.9200     252
145.9400     263
145.9600     269
145.9800     274
146.0000     284
146.0200     291
146.0400     268
146.0600     240
146.0800     239
146.1000     243
146.1200     220
146.1400     190
146.1600     182
146.1800     183
146.2000     189
146.2200     200
146.2400     224
146.2600     248
146.2800     239
146.3000     221
146.3200     223
146.3400     236
146.3600     264
146.3800     292
146.4000     290
146.4200     274
146.4400     253
146.4600     230
146.4800     214
146.5000     208
146.5200     245
146.5400     289
146.5600     281
146.5800     264
146.6000     302
146.6200     348
146.6400     324
146.6600     280
146.6800     276
146.7000     284
146.7200     267
146.7400     243
146.7600     231
146.7800     234
146.8000     294
146.8200     360
146.8400     347
146.8600     304
146.8800     261
146.9000     230
146.9200     251
146.9400     284
146.9600     273
146.9800     255
147.0000     284
147.0200     325
147.0400     334
147.0600     318
147.0800     241
147.1000     156
147.1200     159
147.1400     198
147.1600     242
147.1800     285
147.2000     313
147.2200     321
147.2400     259
147.2600     184
147.2800     184
147.3000     219
147.3200     276
147.3400     332
147.3600     341
147.3800     334
147.4000     340
147.4200     345
147.4400     310
147.4600     260
147.4800     208
147.5000     175
147.5200     237
147.5400     328
147.5600     374
147.5800     395
147.6000     378
147.6200     353
147.6400     363
147.6600     383
147.6800     383
147.7000     373
147.7200     353
147.7400     339
147.7600     373
147.7800     412
147.8000     378
147.8200     327
147.8400     341
147.8600     376
147.8800     389
147.9000     397
147.9200     425
147.9400     454
147.9600     445
147.9800     427
148.0000     439
148.0200     455
148.0400     433
148.0600     392
148.0800     341
148.1000     293
148.1200     288
148.1400     303
148.1600     328
148.1800     360
148.2000     404
148.2200     440
148.2400     416
148.2600     366
148.2800     309
148.3000     271
148.3200     342
148.3400     435
148.3600     424
148.3800     371
148.4000     310
148.4200     265
148.4400     318
148.4600     400
148.4800     432
148.5000     438
148.5200     414
148.5400     382
148.5600     369
148.5800     360
148.6000     341
148.6200     330
148.6400     384
148.6600     447
148.6800     427
148.7000     377
148.7200     350
148.7400     331
148.7600     307
148.7800     292
148.8000     330
148.8200     381
148.8400     384
148.8600     371
148.8800     371
148.9000     376
148.9200     373
148.9400     368
148.9600     369
148.9800     374
149.0000     379
149.0200     386
149.0400     396
149.0600     406
149.0800     401
149.1000     385
149.1200     336
149.1400     293
149.1600     345
149.1800     419
149.2000     413
149.2200     384
149.2400     405
149.2600     431
149.2800     389
149.3000     324
149.3200     287
149.3400     271
149.3600     303
149.3800     345
149.4000     334
149.4200     314
149.4400     357
149.4600     417
149.4800     436
149.5000     434
149.5200     417
149.5400     393
149.5600     372
149.5800     353
149.6000     334
149.6200     324
149.6400     356
149.6600     392
149.6800     366
149.7000     334
149.7200     392
149.7400     470
149.7600     470
149.7800     440
149.8000     420
149.8200     405
149.8400     398
149.8600     393
149.8800     380
149.9000     368
149.9200     376
149.9400     386
149.9600     368
149.9800     347
150.0000     371
150.0200     409
150.0400     427
150.0600     430
150.0800     399
150.1000     361
150.1200     350
150.1400     350
150.1600     348
150.1800     355
150.2000     404
150.2200     458
150.2400     455
150.2600     430
150.2800     408
150.3000     395
150.3200     414
150.3400     444
150.3600     466
150.3800     473
150.4000     430
150.4200     385
150.4400     437
150.4600     509
150.4800     491
150.5000     444
150.5200     433
150.5400     432
150.5600     403
150.5800     371
150.6000     377
150.6200     409
150.6400     489
150.6600     568
150.6800     537
150.7000     469
150.7200     429
150.7400     409
150.7600     428
150.7800     459
150.8000     480
150.8200     502
150.8400     554
150.8600     594
150.8800     517
150.9000     409
150.9200     380
150.9400     395
150.9600     478
150.9800     557
151.0000     481
151.0200     382
151.0400     478
151.0600     618
151.0800     585
151.1000     498
151.1200     486
151.1400     505
151.1600     530
151.1800     561
151.2000     604
151.2200     641
151.2400     626
151.2600     586
151.2800     526
151.3000     474
151.3200     497
151.3400     546
151.3600     568
151.3800     584
151.4000     619
151.4200     650
151.4400     626
151.4600     568
151.4800     451
151.5000     341
151.5200     378
151.5400     471
151.5600     547
151.5800     615
151.6000     675
151.6200     719
151.6400     701
151.6600     664
151.6800     652
151.7000     647
151.7200     627
151.7400     612
151.7600     654
151.7800     703
151.8000     679
151.8200     642
151.8400     690
151.8600     755
151.8800     736
151.9000     690
151.9200     669
151.9400     660
151.9600     653
151.9800     652
152.0000     676
152.0200     703
152.0400     696
152.0600     687
152.0800     730
152.1000     790
152.1200     832
152.1400     858
152.1600     847
152.1800     818
152.2000     774
152.2200     741
152.2400     790
152.2600     859
152.2800     863
152.3000     849
152.3200     880
152.3400     914
152.3600     881
152.3800     832
152.4000     835
152.4200     865
152.4400     925
152.4600     974
152.4800     910
152.5000     827
152.5200     880
152.5400     968
152.5600     955
152.5800     926
152.6000    1022
152.6200    1139
152.6400    1114
152.6600    1043
152.6800    1024
152.7000    1035
152.7200    1092
152.7400    1157
152.7600    1166
152.7800    1155
152.8000    1159
152.8200    1170
152.8400    1189
152.8600    1213
152.8800    1247
152.9000    1283
152.9200    1311
152.9400    1340
152.9600    1394
152.9800    1451
153.0000    1475
153.0200    1468
153.0400    1377
153.0600    1283
153.0800    1336
153.1000    1429
153.1200    1430
153.1400    1407
153.1600    1444
153.1800    1505
153.2000    1563
153.2200    1610
153.2400    1612
153.2600    1589
153.2800    1533
153.3000    1471
153.3200    1454
153.3400    1474
153.3600    1594
153.3800    1730
153.4000    1748
153.4200    1720
153.4400    1703
153.4600    1696
153.4800    1709
153.5000    1735
153.5200    1781
153.5400    1826
153.5600    1823
153.5800    1795
153.6000    1737
153.6200    1691
153.6400    1766
153.6600    1885
153.6800    1978
153.7000    2042
153.7200    2016
153.7400    1944
153.7600    1827
153.7800    1736
153.8000    1868
153.8200    2051
153.8400    2039
153.8600    1954
153.8800    1894
153.9000    1863
153.9200    1924
153.9400    2006
153.9600    2011
153.9800    1994
154.0000    2019
154.0200    2038
154.0400    1947
154.0600    1855
154.0800    1985
154.1000    2177
154.1200    2240
154.1400    2267
154.1600    2364
154.1800    2452
154.2000    2347
154.2200    2195
154.2400    2198
154.2600    2250
154.2800    2244
154.3000    2223
154.3200    2248
154.3400    2302
154.3600    2405
154.3800    2502
154.4000    2474
154.4200    2410
154.4400    2417
154.4600    2449
154.4800    2456
154.5000    2456
154.5200    2463
154.5400    2458
154.5600    2379
154.5800    2298
154.6000    2349
154.6200    2425
154.6400    2361
154.6600    2254
154.6800    2215
154.7000    2194
154.7200    2125
154.7400    2061
154.7600    2115
154.7800    2198
154.8000    2188
154.8200    2146
154.8400    2132
154.8600    2127
154.8800    2107
154.9000    2104
154.9200    2216
154.9400    2338
154.9600    2280
154.9800    2185
155.0000    2267
155.0200    2396
155.0400    2408
155.0600    2369
155.0800    2302
155.1000    2221
155.1200    2126
155.1400    2036
155.1600    1993
155.1800    1995
155.2000    2127
155.2200    2280
155.2400    2276
155.2600    2219
155.2800    2205
155.3000    2207
155.3200    2194
155.3400    2191
155.3600    2261
155.3800    2328
155.4000    2229
155.4200    2079
155.4400    2010
155.4600    1993
155.4800    2068
155.5000    2148
155.5200    2068
155.5400    1933
155.5600    1846
155.5800    1780
155.6000    1721
155.6200    1666
155.6400    1616
155.6600    1594
155.6800    1702
155.7000    1838
155.7200    1852
155.7400    1815
155.7600    1761
155.7800    1711
155.8000    1710
155.8200    1725
155.8400    1725
155.8600    1707
155.8800    1629
155.9000    1532
155.9200    1465
155.9400    1419
155.9600    1426
155.9800    1445
156.0000    1418
156.0200    1385
156.0400    1418
156.0600    1474
156.0800    1505
156.1000    1508
156.1200    1416
156.1400    1310
156.1600    1324
156.1800    1374
156.2000    1366
156.2200    1336
156.2400    1314
156.2600    1302
156.2800    1317
156.3000    1332
156.3200    1292
156.3400    1234
156.3600    1196
156.3800    1174
156.4000    1192
156.4200    1233
156.4400    1314
156.4600    1379
156.4800    1291
156.5000    1158
156.5200    1113
156.5400    1110
156.5600    1144
156.5800    1181
156.6000    1161
156.6200    1124
156.6400    1114
156.6600    1113
156.6800    1110
156.7000    1106
156.7200    1097
156.7400    1082
156.7600    1042
156.7800    1000
156.8000     996
156.8200     985
156.8400     854
156.8600     707
156.8800     712
156.9000     768
156.9200     774
156.9400     772
156.9600     835
156.9800     903
157.0000     874
157.0200     820
157.0400     836
157.0600     865
157.0800     818
157.1000     753
157.1200     758
157.1400     787
157.1600     799
157.1800     803
157.2000     797
157.2200     797
157.2400     844
157.2600     906
157.2800     953
157.3000     974
157.3200     898
157.3400     799
157.3600     777
157.3800     783
157.4000     781
157.4200     771
157.4400     741
157.4600     707
157.4800     694
157.5000     694
157.5200     714
157.5400     733
157.5600     707
157.5800     669
157.6000     661
157.6200     662
157.6400     643
157.6600     618
157.6800     600
157.7000     595
157.7200     647
157.7400     710
157.7600     721
157.7800     714
157.8000     724
157.8200     731
157.8400     691
157.8600     644
157.8800     649
157.9000     667
157.9200     648
157.9400     622
157.9600     638
157.9800     659
158.0000     625
158.0200     567
158.0400     501
158.0600     448
158.0800     483
158.1000     543
158.1200     550
158.1400     539
158.1600     543
158.1800     547
158.2000     521
158.2200     491
158.2400     502
158.2600     528
158.2800     544
158.3000     555
158.3200     556
158.3400     547
158.3600     503
158.3800     459
158.4000     485
158.4200     528
158.4400     518
158.4600     498
158.4800     536
158.5000     585
158.5200     571
158.5400     548
158.5600     613
158.5800     688
158.6000     637
158.6200     553
158.6400     562
158.6600     597
158.6800     577
158.7000     537
158.7200     504
158.7400     474
158.7600     449
158.7800     422
158.8000     378
158.8200     350
158.8400     429
158.8600     529
158.8800     520
158.9000     469
158.9200     420
158.9400     391
158.9600     460
158.9800     551
159.0000     556
159.0200     525
159.0400     494
159.0600     462
159.0800     432
159.1000     407
159.1200     412
159.1400     421
159.1600     393
159.1800     357
159.2000     351
159.2200     361
159.2400     391
159.2600     430
159.2800     472
159.3000     507
159.3200     492
159.3400     460
159.3600     440
159.3800     426
159.4000     420
159.4200     423
159.4400     451
159.4600     474
159.4800     419
159.5000     342
159.5200     311
159.5400     306
159.5600     335
159.5800     367
159.6000     352
159.6200     319
159.6400     291
159.6600     275
159.6800     307
159.7000     352
159.7200     357
159.7400     343
159.7600     306
159.7800     277
159.8000     338
159.8200     424
159.8400     460
159.8600     466
159.8800     425
159.9000     369
159.9200     333
159.9400     303
159.9600     263
159.9800     236
160.0000     289
160.0200     363
160.0400     375
160.0600     371
160.0800     407
160.1000     457
160.1200     497
160.1400     523
160.1600     494
160.1800     443
160.2000     387
160.2200     336
160.2400     322
160.2600     324
160.2800     338
160.3000     353
160.3200     356
160.3400     356
160.3600     368
160.3800     371
160.4000     312
160.4200     239
160.4400     216
160.4600     224
160.4800     282
160.5000     348
160.5200     356
160.5400     336
160.5600     299
160.5800     260
160.6000     241
160.6200     243
160.6400     302
160.6600     368
160.6800     355
160.7000     321
160.7200     337
160.7400     365
160.7600     350
160.7800     319
160.8000     293
160.8200     281
160.8400     327
160.8600     377
160.8800     327
160.9000     260
160.9200     310
160.9400     381
160.9600     327
160.9800     246
161.0000     280
161.0200     345
161.0400     333
161.0600     294
161.0800     267
161.1000     259
161.1200     322
161.1400     393
161.1600     356
161.1800     293
161.2000     317
161.2200     359
161.2400     326
161.2600     267
161.2800     233
161.3000     218
161.3200     251
161.3400     296
161.3600     305
161.3800     295
161.4000     266
161.4200     239
161.4400     256
161.4600     284
161.4800     282
161.5000     272
161.5200     283
161.5400     301
161.5600     304
161.5800     302
161.6000     298
161.6200     287
161.6400     238
161.6600     188
161.6800     208
161.7000     250
161.7200     264
161.7400     267
161.7600     276
161.7800     287
161.8000     293
161.8200     292
161.8400     265
161.8600     234
161.8800     239
161.9000     257
161.9200     262
161.9400     263
161.9600     269
161.9800     273