File: XRD_Tool/XRD_Tool/bin/Debug/LDA_sample_name_56789_Psi-15_20180623-000554.txt
138.0000     194
138.0200     145
138.0400     118
138.0600     117
138.0800     203
138.1000     299
138.1200     275
138.1400     219
138.1600     246
138.1800     291
138.2000     261
138.2200     215
138.2400     239
138.2600     283
138.2800     289
138.3000     282
138.3200     293
138.3400     300
138.3600     251
138.3800     191
138.4000     191
138.4200     216
138.4400     249
138.4600     286
138.4800     326
138.5000     355
138.5200     318
138.5400     260
138.5600     233
138.5800     219
138.6000     200
138.6200     186
138.6400     199
138.6600     222
138.6800     240
138.7000     254
138.7200     259
138.7400     258
138.7600     237
138.7800     220
138.8000     258
138.8200     305
138.8400     285
138.8600     238
138.8800     181
138.9000     129
138.9200     117
138.9400     132
138.9600     200
138.9800     270
139.0000     239
139.0200     184
139.0400     214
139.0600     268
139.0800     272
139.1000     258
139.1200     255
139.1400     254
139.1600     235
139.1800     211
139.2000     197
139.2200     191
139.2400     205
139.2600     228
139.2800     258
139.3000     290
139.3200     323
139.3400     347
139.3600     318
139.3800     266
139.4000     206
139.4200     156
139.4400     177
139.4600     229
139.4800     288
139.5000     337
139.5200     321
139.5400     284
139.5600     274
139.5800     271
139.6000     253
139.6200     238
139.6400     268
139.6600     302
139.6800     267
139.7000     212
139.7200     189
139.7400     188
139.7600     234
139.7800     282
139.8000     251
139.8200     204
139.8400     229
139.8600     275
139.8800     283
139.9000     282
139.9200     316
139.9400     346
139.9600     287
139.9800     213
140.0000     236
140.0200     283
140.0400     258
140.0600     205
140.0800     156
140.1000     117
140.1200     123
140.1400     151
140.1600     199
140.1800     248
140.2000     262
140.2200     259
140.2400     241
140.2600     221
140.2800     221
140.3000     228
140.3200     233
140.3400     233
140.3600     213
140.3800     197
140.4000     239
140.4200     286
140.4400     235
140.4600     161
140.4800     165
140.5000     193
140.5200     181
140.5400     166
140.5600     213
140.5800     268
140.6000     243
140.6200     191
140.6400     169
140.6600     158
140.6800     144
140.7000     135
140.7200     166
140.7400     212
140.7600     258
140.7800     292
140.8000     264
140.8200     230
140.8400     286
140.8600     357
140.8800     323
140.9000     264
140.9200     290
140.9400     337
140.9600     316
140.9800     274
141.0000     265
141.0200     267
141.0400     256
141.0600     236
141.0800     199
141.1000     165
141.1200     181
141.1400     216
141.1600     244
141.1800     270
141.2000     291
141.2200     304
141.2400     284
141.2600     248
141.2800     205
141.3000     173
141.3200     206
141.3400     256
141.3600     258
141.3800     248
141.4000     281
141.4200     321
141.4400     308
141.4600     276
141.4800     257
141.5000     242
141.5200     217
141.5400     194
141.5600     193
141.5800     200
141.6000     205
141.6200     217
141.6400     266
141.6600     313
141.6800     276
141.7000     221
141.7200     238
141.7400     274
141.7600     258
141.7800     230
141.8000     239
141.8200     265
141.8400     301
141.8600     333
141.8800     330
141.9000     305
141.9200     248
141.9400     199
141.9600     254
141.9800     328
142.0000     295
142.0200     227
142.0400     197
142.0600     197
142.0800     267
142.1000     342
142.1200     299
142.1400     224
142.1600     222
142.1800     242
142.2000     224
142.2200     205
142.2400     263
142.2600     331
142.2800     300
142.3000     245
142.3200     265
142.3400     307
142.3600     306
142.3800     294
142.4000     310
142.4200     338
142.4400     366
142.4600     378
142.4800     312
142.5000     233
142.5200     252
142.5400     306
142.5600     335
142.5800     347
142.6000     316
142.6200     271
142.6400     242
142.6600     223
142.6800     219
142.7000     222
142.7200     227
142.7400     239
142.7600     281
142.7800     330
142.8000     357
142.8200     358
142.8400     274
142.8600     190
142.8800     273
142.9000     397
142.9200     391
142.9400     341
142.9600     329
142.9800     340
143.0000     384
143.0200     425
143.0400     381
143.0600     313
143.0800     292
143.1000     289
143.1200     283
143.1400     280
143.1600     307
143.1800     341
143.2000     358
143.2200     361
143.2400     328
143.2600     285
143.2800     272
143.3000     272
143.3200     282
143.3400     298
143.3600     322
143.3800     341
143.4000     312
143.4200     270
143.4400     263
143.4600     271
143.4800     287
143.5000     301
143.5200     287
143.5400     267
143.5600     279
143.5800     298
143.6000     297
143.6200     280
143.6400     231
143.6600     191
143.6800     256
143.7000     342
143.7200     318
143.7400     269
143.7600     312
143.7800     373
143.8000     340
143.8200     278
143.8400     255
143.8600     246
143.8800     233
143.9000     222
143.9200     221
143.9400     233
143.9600     282
143.9800     328
144.0000     285
144.0200     228
144.0400     273
144.0600     345
144.0800     345
144.1000     324
144.1200     336
144.1400     353
144.1600     324
144.1800     286
144.2000     298
144.2200     321
144.2400     302
144.2600     277
144.2800     309
144.3000     358
144.3200     384
144.3400     388
144.3600     332
144.3800     258
144.4000     217
144.4200     199
144.4400     231
144.4600     289
144.4800     377
144.5000     454
144.5200     418
144.5400     350
144.5600     350
144.5800     365
144.6000     317
144.6200     253
144.6400     241
144.6600     241
144.6800     201
144.7000     163
144.7200     215
144.7400     297
144.7600     352
144.7800     384
144.8000     356
144.8200     311
144.8400     299
144.8600     301
144.8800     303
144.9000     310
144.9200     337
144.9400     364
144.9600     343
144.9800     316
145.0000     357
145.0200     406
145.0400     360
145.0600     292
145.0800     306
145.1000     341
145.1200     324
145.1400     292
145.1600     290
145.1800     308
145.2000     365
145.2200     420
145.2400     393
145.2600     336
145.2800     296
145.3000     267
145.3200     266
145.3400     287
145.3600     363
145.3800     439
145.4000     402
145.4200     334
145.4400     334
145.4600     362
145.4800     387
145.5000     398
145.5200     349
145.5400     286
145.5600     280
145.5800     295
145.6000     305
145.6200     305
145.6400     268
145.6600     229
145.6800     253
145.7000     297
145.7200     310
145.7400     309
145.7600     303
145.7800     300
145.8000     322
145.8200     345
145.8400     328
145.8600     308
145.8800     360
145.9000     419
145.9200     376
145.9400     300
145.9600     266
145.9800     258
146.0000     298
146.0200     354
146.0400     388
146.0600     407
146.0800     391
146.1000     369
146.1200     386
146.1400     408
146.1600     383
146.1800     342
146.2000     316
146.2200     300
146.2400     302
146.2600     312
146.2800     321
146.3000     321
146.3200     286
146.3400     250
146.3600     284
146.3800     332
146.4000     308
146.4200     278
146.4400     360
146.4600     460
146.4800     428
146.5000     349
146.5200     293
146.5400     264
146.5600     319
146.5800     385
146.6000     344
146.6200     274
146.6400     272
146.6600     298
146.6800     324
146.7000     352
146.7200     387
146.7400     419
146.7600     421
146.7800     408
146.8000     383
146.8200     352
146.8400     315
146.8600     281
146.8800     282
146.9000     296
146.9200     313
146.9400     328
146.9600     327
146.9800     314
147.0000     281
147.0200     250
147.0400     274
147.0600     316
147.0800     340
147.1000     353
147.1200     352
147.1400     345
147.1600     333
147.1800     323
147.2000     330
147.2200     340
147.2400     330
147.2600     308
147.2800     268
147.3000     234
147.3200     273
147.3400     334
147.3600     358
147.3800     370
147.4000     387
147.4200     403
147.4400     399
147.4600     388
147.4800     380
147.5000     379
147.5200     398
147.5400     416
147.5600     386
147.5800     346
147.6000     359
147.6200     391
147.6400     410
147.6600     422
147.6800     422
147.7000     411
147.7200     367
147.7400     320
147.7600     331
147.7800     363
147.8000     384
147.8200     394
147.8400     377
147.8600     350
147.8800     330
147.9000     319
147.9200     341
147.9400     381
147.9600     441
147.9800     485
148.0000     409
148.0200     301
148.0400     273
148.0600     283
148.0800     320
148.1000     361
148.1200     367
148.1400     364
148.1600     387
148.1800     414
148.2000     405
148.2200     382
148.2400     367
148.2600     349
148.2800     299
148.3000     262
148.3200     347
148.3400     453
148.3600     417
148.3800     341
148.4000     345
148.4200     379
148.4400     401
148.4600     412
148.4800     388
148.5000     363
148.5200     402
148.5400     461
148.5600     500
148.5800     516
148.6000     465
148.6200     397
148.6400     374
148.6600     373
148.6800     385
148.7000     394
148.7200     358
148.7400     316
148.7600     331
148.7800     374
148.8000     442
148.8200     496
148.8400     430
148.8600     330
148.8800     298
148.9000     294
148.9200     287
148.9400     286
148.9600     323
148.9800     365
149.0000     355
149.0200     334
149.0400     353
149.0600     382
149.0800     376
149.1000     359
149.1200     357
149.1400     356
149.1600     332
149.1800     313
149.2000     372
149.2200     451
149.2400     474
149.2600     469
149.2800     439
149.3000     402
149.3200     380
149.3400     366
149.3600     363
149.3800     371
149.4000     408
149.4200     441
149.4400     402
149.4600     347
149.4800     357
149.5000     396
149.5200     450
149.5400     492
149.5600     442
149.5800     377
149.6000     417
149.6200     485
149.6400     478
149.6600     447
149.6800     441
149.7000     455
149.7200     521
149.7400     579
149.7600     500
149.7800     389
149.8000     390
149.8200     431
149.8400     447
149.8600     466
149.8800     550
149.9000     633
149.9200     581
149.9400     487
149.9600     451
149.9800     447
150.0000     483
150.0200     520
150.0400     479
150.0600     428
150.0800     483
150.1000     569
150.1200     594
150.1400     588
150.1600     552
150.1800     508
150.2000     484
150.2200     472
150.2400     485
150.2600     509
150.2800     543
150.3000     576
150.3200     582
150.3400     567
150.3600     499
150.3800     431
150.4000     475
150.4200     556
150.4400     602
150.4600     627
150.4800     617
150.5000     592
150.5200     567
150.5400     549
150.5600     571
150.5800     596
150.6000     559
150.6200     504
150.6400     484
150.6600     483
150.6800     506
150.7000     537
150.7200     568
150.7400     584
150.7600     533
150.7800     475
150.8000     512
150.8200     580
150.8400     608
150.8600     617
150.8800     609
150.9000     598
150.9200     597
150.9400     590
150.9600     526
150.9800     452
151.0000     438
151.0200     449
151.0400     464
151.0600     478
151.0800     483
151.1000     488
151.1200     503
151.1400     524
151.1600     548
151.1800     576
151.2000     614
151.2200     646
151.2400     623
151.2600     580
151.2800     544
151.3000     525
151.3200     583
151.3400     652
151.3600     631
151.3800     590
151.4000     634
151.4200     706
151.4400     751
151.4600     769
151.4800     702
151.5000     625
151.5200     663
151.5400     737
151.5600     763
151.5800     771
151.6000     792
151.6200     807
151.6400     767
151.6600     712
151.6800     691
151.7000     693
151.7200     748
151.7400     815
151.7600     834
151.7800     829
151.8000     802
151.8200     776
151.8400     802
151.8600     838
151.8800     824
151.9000     794
151.9200     787
151.9400     788
151.9600     784
151.9800     789
152.0000     849
152.0200     926
152.0400     978
152.0600    1010
152.0800     987
152.1000     946
152.1200     917
152.1400     902
152.1600     932
152.1800     968
152.2000     947
152.2200     916
152.2400     947
152.2600     990
152.2800     968
152.3000     936
152.3200     989
152.3400    1065
152.3600    1093
152.3800    1103
152.4000    1124
152.4200    1144
152.4400    1129
152.4600    1098
152.4800    1054
152.5000    1028
152.5200    1125
152.5400    1251
152.5600    1276
152.5800    1267
152.6000    1294
152.6200    1327
152.6400    1314
152.6600    1284
152.6800    1267
152.7000    1277
152.7200    1399
152.7400    1536
152.7600    1531
152.7800    1480
152.8000    1484
152.8200    1515
152.8400    1570
152.8600    1634
152.8800    1698
152.9000    1741
152.9200    1680
152.9400    1596
152.9600    1597
152.9800    1623
153.0000    1601
153.0200    1568
153.0400    1582
153.0600    1603
153.0800    1574
153.1000    1542
153.1200    1603
153.1400    1686
153.1600    1694
153.1800    1680
153.2000    1706
153.2200    1764
153.2400    1902
153.2600    2037
153.2800    1996
153.3000    1896
153.3200    1859
153.3400    1868
153.3600    1982
153.3800    2115
153.4000    2130
153.4200    2116
153.4400    2192
153.4600    2283
153.4800    2272
153.5000    2215
153.5200    2135
153.5400    2082
153.5600    2214
153.5800    2377
153.6000    2325
153.6200    2212
153.6400    2224
153.6600    2278
153.6800    2292
153.7000    2300
153.7200    2358
153.7400    2433
153.7600    2495
153.7800    2536
153.8000    2505
153.8200    2465
153.8400    2522
153.8600    2597
153.8800    2572
153.9000    2531
153.9200    2615
153.9400    2713
153.9600    2629
153.9800    2501
154.0000    2511
154.0200    2544
154.0400    2409
154.0600    2249
154.0800    2301
154.1000    2435
154.1200    2560
154.1400    2661
154.1600    2656
154.1800    2614
154.2000    2602
154.2200    2606
154.2400    2631
154.2600    2640
154.2800    2521
154.3000    2386
154.3200    2424
154.3400    2518
154.3600    2544
154.3800    2522
154.4000    2403
154.4200    2288
154.4400    2387
154.4600    2543
154.4800    2564
154.5000    2542
154.5200    2580
154.5400    2627
154.5600    2599
154.5800    2560
154.6000    2616
154.6200    2671
154.6400    2533
154.6600    2339
154.6800    2255
154.7000    2226
154.7200    2252
154.7400    2287
154.7600    2258
154.7800    2226
154.8000    2301
154.8200    2389
154.8400    2329
154.8600    2234
154.8800    2269
154.9000    2336
154.9200    2310
154.9400    2257
154.9600    2262
154.9800    2269
155.0000    2169
155.0200    2052
155.0400    2060
155.0600    2094
155.0800    2003
155.1000    1885
155.1200    1875
155.1400    1909
155.1600    1943
155.1800    1983
155.2000    2052
155.2200    2116
155.2400    2101
155.2600    2070
155.2800    2114
155.3000    2155
155.3200    2030
155.3400    1861
155.3600    1812
155.3800    1803
155.4000    1759
155.4200    1709
155.4400    1699
155.4600    1696
155.4800    1646
155.5000    1585
155.5200    1561
155.5400    1544
155.5600    1494
155.5800    1443
155.6000    1457
155.6200    1483
155.6400    1442
155.6600    1391
155.6800    1425
155.7000    1477
155.7200    1447
155.7400    1407
155.7600    1474
155.7800    1563
155.8000    1550
155.8200    1507
155.8400    1514
155.8600    1531
155.8800    1493
155.9000    1428
155.9200    1338
155.9400    1265
155.9600    1325
155.9800    1411
156.0000    1354
156.0200    1255
156.0400    1234
156.0600    1237
156.0800    1202
156.1000    1154
156.1200    1118
156.1400    1099
156.1600    1150
156.1800    1211
156.2000    1189
156.2200    1135
156.2400    1092
156.2600    1062
156.2800    1071
156.3000    1081
156.3200    1022
156.3400     942
156.3600     889
156.3800     872
156.4000     980
156.4200    1108
156.4400    1086
156.4600    1008
156.4800     952
156.5000     915
156.5200     936
156.5400     984
156.5600    1050
156.5800    1110
156.6000    1095
156.6200    1055
156.6400    1033
156.6600    1017
156.6800     990
156.7000     948
156.7200     861
156.7400     760
156.7600     687
156.7800     649
156.8000     731
156.8200     847
156.8400     890
156.8600     901
156.8800     895
156.9000     874
156.9200     808
156.9400     733
156.9600     703
156.9800     699
157.0000     737
157.0200     781
157.0400     778
157.0600     756
157.0800     734
157.1000     716
157.1200     717
157.1400     724
157.1600     731
157.1800     736
157.2000     738
157.2200     731
157.2400     689
157.2600     651
157.2800     703
157.3000     767
157.3200     711
157.3400     630
157.3600     669
157.3800     740
157.4000     734
157.4200     700
157.4400     673
157.4600     652
157.4800     649
157.5000     653
157.5200     659
157.5400     669
157.5600     701
157.5800     732
157.6000     718
157.6200     685
157.6400     647
157.6600     617
157.6800     638
157.7000     673
157.7200     668
157.7400     648
157.7600     628
157.7800     614
157.8000     628
157.8200     650
157.8400     647
157.8600     641
157.8800     663
157.9000     688
157.9200     667
157.9400     638
157.9600     665
157.9800     701
158.0000     666
158.0200     612
158.0400     613
158.0600     628
158.0800     610
158.1000     574
158.1200     518
158.1400     481
158.1600     580
158.1800     707
158.2000     694
158.2200     630
158.2400     588
158.2600     564
158.2800     592
158.3000     628
158.3200     604
158.3400     564
158.3600     567
158.3800     581
158.4000     562
158.4200     535
158.4400     538
158.4600     557
158.4800     599
158.5000     636
158.5200     598
158.5400     545
158.5600     565
158.5800     608
158.6000     616
158.6200     605
158.6400     568
158.6600     523
158.6800     493
158.7000     475
158.7200     487
158.7400     509
158.7600     522
158.7800     521
158.8000     464
158.8200     390
158.8400     351
158.8600     347
158.8800     456
158.9000     574
158.9200     507
158.9400     397
158.9600     434
158.9800     519
159.0000     554
159.0200     559
159.0400     522
159.0600     480
159.0800     498
159.1000     541
159.1200     589
159.1400     627
159.1600     604
159.1800     555
159.2000     502
159.2200     454
159.2400     436
159.2600     451
159.2800     566
159.3000     686
159.3200     626
159.3400     508
159.3600     457
159.3800     432
159.4000     407
159.4200     385
159.4400     383
159.4600     394
159.4800     430
159.5000     473
159.5200     501
159.5400     515
159.5600     492
159.5800     457
159.6000     436
159.6200     425
159.6400     442
159.6600     464
159.6800     458
159.7000     438
159.7200     408
159.7400     384
159.7600     410
159.7800     448
159.8000     448
159.8200     425
159.8400     370
159.8600     308
159.8800     276
159.9000     264
159.9200     292
159.9400     332
159.9600     354
159.9800     365
160.0000     363
160.0200     363
160.0400     406
160.0600     456
160.0800     458
160.1000     441
160.1200     431
160.1400     420
160.1600     395
160.1800     375
160.2000     402
160.2200     427
160.2400     350
160.2600     258
160.2800     291
160.3000     363
160.3200     375
160.3400     373
160.3600     421
160.3800     469
160.4000     417
160.4200     337
160.4400     314
160.4600     313
160.4800     312
160.5000     320
160.5200     378
160.5400     448
160.5600     478
160.5800     485
160.6000     455
160.6200     417
160.6400     407
160.6600     409
160.6800     408
160.7000     408
160.7200     421
160.7400     439
160.7600     456
160.7800     466
160.8000     447
160.8200     421
160.8400     410
160.8600     407
160.8800     409
160.9000     407
160.9200     373
160.9400     332
160.9600     315
160.9800     310
161.0000     320
161.0200     337
161.0400     359
161.0600     375
161.0800     352
161.1000     323
161.1200     334
161.1400     354
161.1600     332
161.1800     299
161.2000     288
161.2200     285
161.2400     277
161.2600     272
161.2800     295
161.3000     332
161.3200     383
161.3400     424
161.3600     393
161.3800     344
161.4000     350
161.4200     378
161.4400     406
161.4600     412
161.4800     310
161.5000     196
161.5200     240
161.5400     334
161.5600     355
161.5800     350
161.6000     363
161.6200     380
161.6400     380
161.6600     378
161.6800     391
161.7000     403
161.7200     372
161.7400     328
161.7600     307
161.7800     301
161.8000     325
161.8200     354
161.8400     345
161.8600     318
161.8800     281
161.9000     250
161.9200     277
161.9400     322
161.9600     342
161.9800     354