File: XRD_Tool/XRD_Tool/bin/Debug/LDA_sample_name_56789_Psi-0_20180622-213735.txt
137.2000     233
137.2200     243
137.2400     264
137.2600     278
137.2800     232
137.3000     169
137.3200     140
137.3400     133
137.3600     171
137.3800     227
137.4000     283
137.4200     327
137.4400     311
137.4600     284
137.4800     323
137.5000     372
137.5200     336
137.5400     280
137.5600     289
137.5800     314
137.6000     281
137.6200     230
137.6400     204
137.6600     191
137.6800     196
137.7000     200
137.7200     161
137.7400     119
137.7600     150
137.7800     202
137.8000     216
137.8200     222
137.8400     266
137.8600     315
137.8800     309
137.9000     290
137.9200     314
137.9400     335
137.9600     248
137.9800     147
138.0000     191
138.0200     272
138.0400     246
138.0600     191
138.0800     199
138.1000     234
138.1200     269
138.1400     295
138.1600     271
138.1800     233
138.2000     223
138.2200     226
138.2400     233
138.2600     240
138.2800     247
138.3000     256
138.3200     278
138.3400     302
138.3600     308
138.3800     297
138.4000     241
138.4200     173
138.4400     138
138.4600     142
138.4800     271
138.5000     406
138.5200     313
138.5400     157
138.5600     146
138.5800     190
138.6000     224
138.6200     251
138.6400     263
138.6600     269
138.6800     278
138.7000     288
138.7200     298
138.7400     307
138.7600     311
138.7800     307
138.8000     273
138.8200     231
138.8400     206
138.8600     192
138.8800     201
138.9000     225
138.9200     274
138.9400     325
138.9600     328
138.9800     313
139.0000     303
139.0200     291
139.0400     262
139.0600     232
139.0800     229
139.1000     234
139.1200     227
139.1400     223
139.1600     259
139.1800     305
139.2000     321
139.2200     316
139.2400     266
139.2600     211
139.2800     221
139.3000     254
139.3200     269
139.3400     275
139.3600     271
139.3800     268
139.4000     290
139.4200     317
139.4400     322
139.4600     321
139.4800     335
139.5000     340
139.5200     270
139.5400     184
139.5600     168
139.5800     186
139.6000     231
139.6200     282
139.6400     309
139.6600     327
139.6800     344
139.7000     351
139.7200     318
139.7400     275
139.7600     267
139.7800     279
139.8000     319
139.8200     366
139.8400     390
139.8600     394
139.8800     348
139.9000     291
139.9200     279
139.9400     280
139.9600     254
139.9800     230
140.0000     266
140.0200     313
140.0400     295
140.0600     264
140.0800     296
140.1000     345
140.1200     344
140.1400     319
140.1600     269
140.1800     227
140.2000     277
140.2200     345
140.2400     323
140.2600     271
140.2800     251
140.3000     244
140.3200     243
140.3400     250
140.3600     279
140.3800     310
140.4000     309
140.4200     298
140.4400     297
140.4600     300
140.4800     300
140.5000     294
140.5200     268
140.5400     238
140.5600     226
140.5800     228
140.6000     260
140.6200     299
140.6400     311
140.6600     309
140.6800     286
140.7000     259
140.7200     258
140.7400     265
140.7600     257
140.7800     239
140.8000     200
140.8200     169
140.8400     223
140.8600     294
140.8800     281
140.9000     239
140.9200     217
140.9400     202
140.9600     181
140.9800     163
141.0000     176
141.0200     200
141.0400     214
141.0600     227
141.0800     250
141.1000     277
141.1200     296
141.1400     311
141.1600     326
141.1800     341
141.2000     361
141.2200     371
141.2400     321
141.2600     256
141.2800     234
141.3000     230
141.3200     224
141.3400     219
141.3600     218
141.3800     224
141.4000     260
141.4200     305
141.4400     338
141.4600     352
141.4800     294
141.5000     227
141.5200     252
141.5400     313
141.5600     371
141.5800     415
141.6000     399
141.6200     354
141.6400     287
141.6600     226
141.6800     237
141.7000     271
141.7200     276
141.7400     280
141.7600     334
141.7800     388
141.8000     342
141.8200     268
141.8400     253
141.8600     249
141.8800     185
141.9000     124
141.9200     203
141.9400     323
141.9600     376
141.9800     396
142.0000     383
142.0200     356
142.0400     326
142.0600     298
142.0800     291
142.1000     295
142.1200     308
142.1400     326
142.1600     355
142.1800     386
142.2000     402
142.2200     399
142.2400     326
142.2600     240
142.2800     221
142.3000     235
142.3200     280
142.3400     324
142.3600     297
142.3800     252
142.4000     267
142.4200     301
142.4400     318
142.4600     324
142.4800     305
142.5000     292
142.5200     356
142.5400     418
142.5600     322
142.5800     198
142.6000     257
142.6200     370
142.6400     390
142.6600     378
142.6800     398
142.7000     418
142.7200     379
142.7400     326
142.7600     318
142.7800     327
142.8000     330
142.8200     327
142.8400     309
142.8600     292
142.8800     310
142.9000     336
142.9200     333
142.9400     324
142.9600     337
142.9800     361
143.0000     397
143.0200     427
143.0400     412
143.0600     378
143.0800     346
143.1000     319
143.1200     318
143.1400     325
143.1600     314
143.1800     305
143.2000     339
143.2200     383
143.2400     385
143.2600     377
143.2800     396
143.3000     420
143.3200     414
143.3400     394
143.3600     364
143.3800     335
143.4000     333
143.4200     339
143.4400     335
143.4600     323
143.4800     296
143.5000     272
143.5200     300
143.5400     341
143.5600     348
143.5800     347
143.6000     366
143.6200     383
143.6400     347
143.6600     305
143.6800     343
143.7000     397
143.7200     369
143.7400     315
143.7600     291
143.7800     284
143.8000     299
143.8200     318
143.8400     317
143.8600     305
143.8800     286
143.9000     269
143.9200     274
143.9400     288
143.9600     302
143.9800     315
144.0000     321
144.0200     323
144.0400     313
144.0600     311
144.0800     364
144.1000     426
144.1200     418
144.1400     379
144.1600     322
144.1800     269
144.2000     272
144.2200     296
144.2400     310
144.2600     323
144.2800     351
144.3000     376
144.3200     351
144.3400     317
144.3600     330
144.3800     352
144.4000     329
144.4200     295
144.4400     304
144.4600     325
144.4800     321
144.5000     316
144.5200     351
144.5400     397
144.5600     415
144.5800     419
144.6000     411
144.6200     395
144.6400     357
144.6600     312
144.6800     267
144.7000     238
144.7200     282
144.7400     349
144.7600     380
144.7800     390
144.8000     375
144.8200     340
144.8400     260
144.8600     185
144.8800     228
144.9000     307
144.9200     330
144.9400     325
144.9600     298
144.9800     267
145.0000     261
145.0200     264
145.0400     264
145.0600     276
145.0800     361
145.1000     439
145.1200     334
145.1400     189
145.1600     207
145.1800     287
145.2000     349
145.2200     388
145.2400     352
145.2600     295
145.2800     281
145.3000     292
145.3200     340
145.3400     395
145.3600     418
145.3800     423
145.4000     398
145.4200     364
145.4400     342
145.4600     330
145.4800     351
145.5000     375
145.5200     349
145.5400     312
145.5600     315
145.5800     337
145.6000     371
145.6200     396
145.6400     359
145.6600     318
145.6800     379
145.7000     455
145.7200     401
145.7400     310
145.7600     294
145.7800     316
145.8000     378
145.8200     438
145.8400     408
145.8600     354
145.8800     360
145.9000     391
145.9200     427
145.9400     451
145.9600     408
145.9800     348
146.0000     338
146.0200     347
146.0400     350
146.0600     340
146.0800     281
146.1000     214
146.1200     199
146.1400     208
146.1600     230
146.1800     261
146.2000     304
146.2200     342
146.2400     335
146.2600     316
146.2800     332
146.3000     350
146.3200     311
146.3400     259
146.3600     252
146.3800     272
146.4000     329
146.4200     387
146.4400     375
146.4600     338
146.4800     316
146.5000     305
146.5200     320
146.5400     348
146.5600     386
146.5800     416
146.6000     386
146.6200     347
146.6400     378
146.6600     426
146.6800     416
146.7000     388
146.7200     393
146.7400     408
146.7600     407
146.7800     405
146.8000     438
146.8200     463
146.8400     383
146.8600     281
146.8800     277
146.9000     315
146.9200     361
146.9400     400
146.9600     384
146.9800     358
147.0000     392
147.0200     435
147.0400     403
147.0600     355
147.0800     372
147.1000     416
147.1200     460
147.1400     493
147.1600     469
147.1800     438
147.2000     482
147.2200     530
147.2400     448
147.2600     342
147.2800     373
147.3000     452
147.3200     498
147.3400     514
147.3600     450
147.3800     371
147.4000     377
147.4200     414
147.4400     436
147.4600     446
147.4800     426
147.5000     403
147.5200     430
147.5400     463
147.5600     434
147.5800     385
147.6000     358
147.6200     356
147.6400     437
147.6600     525
147.6800     482
147.7000     393
147.7200     340
147.7400     312
147.7600     331
147.7800     372
147.8000     426
147.8200     473
147.8400     455
147.8600     416
147.8800     402
147.9000     401
147.9200     417
147.9400     431
147.9600     405
147.9800     377
148.0000     417
148.0200     468
148.0400     431
148.0600     371
148.0800     372
148.1000     399
148.1200     430
148.1400     461
148.1600     492
148.1800     517
148.2000     517
148.2200     507
148.2400     500
148.2600     484
148.2800     413
148.3000     343
148.3200     385
148.3400     458
148.3600     464
148.3800     450
148.4000     468
148.4200     489
148.4400     463
148.4600     427
148.4800     429
148.5000     438
148.5200     402
148.5400     369
148.5600     441
148.5800     533
148.6000     514
148.6200     461
148.6400     464
148.6600     486
148.6800     485
148.7000     473
148.7200     453
148.7400     440
148.7600     482
148.7800     528
148.8000     487
148.8200     427
148.8400     447
148.8600     491
148.8800     493
148.9000     473
148.9200     423
148.9400     376
148.9600     401
148.9800     445
149.0000     439
149.0200     427
149.0400     487
149.0600     544
149.0800     447
149.1000     325
149.1200     383
149.1400     497
149.1600     526
149.1800     518
149.2000     490
149.2200     461
149.2400     469
149.2600     490
149.2800     504
149.3000     516
149.3200     530
149.3400     539
149.3600     526
149.3800     515
149.4000     559
149.4200     605
149.4400     550
149.4600     468
149.4800     459
149.5000     486
149.5200     546
149.5400     608
149.5600     607
149.5800     586
149.6000     592
149.6200     602
149.6400     585
149.6600     564
149.6800     576
149.7000     605
149.7200     644
149.7400     665
149.7600     568
149.7800     446
149.8000     437
149.8200     477
149.8400     539
149.8600     599
149.8800     612
149.9000     598
149.9200     541
149.9400     484
149.9600     514
149.9800     573
150.0000     607
150.0200     629
150.0400     642
150.0600     648
150.0800     634
150.1000     609
150.1200     564
150.1400     517
150.1600     492
150.1800     490
150.2000     558
150.2200     637
150.2400     632
150.2600     600
150.2800     595
150.3000     605
150.3200     635
150.3400     671
150.3600     700
150.3800     721
150.4000     716
150.4200     702
150.4400     701
150.4600     702
150.4800     686
150.5000     670
150.5200     684
150.5400     701
150.5600     673
150.5800     643
150.6000     692
150.6200     767
150.6400     822
150.6600     850
150.6800     786
150.7000     703
150.7200     702
150.7400     726
150.7600     715
150.7800     711
150.8000     815
150.8200     932
150.8400     892
150.8600     814
150.8800     853
150.9000     920
150.9200     894
150.9400     840
150.9600     839
150.9800     859
151.0000     879
151.0200     902
151.0400     938
151.0600     967
151.0800     931
151.1000     876
151.1200     855
151.1400     859
151.1600     926
151.1800    1004
151.2000    1009
151.2200     984
151.2400     957
151.2600     939
151.2800     968
151.3000    1013
151.3200    1044
151.3400    1066
151.3600    1067
151.3800    1056
151.4000    1031
151.4200    1004
151.4400     989
151.4600     982
151.4800     993
151.5000    1022
151.5200    1103
151.5400    1189
151.5600    1195
151.5800    1175
151.6000    1188
151.6200    1214
151.6400    1240
151.6600    1261
151.6800    1257
151.7000    1266
151.7200    1385
151.7400    1518
151.7600    1498
151.7800    1425
151.8000    1397
151.8200    1417
151.8400    1587
151.8600    1775
151.8800    1755
151.9000    1666
151.9200    1653
151.9400    1683
151.9600    1772
151.9800    1854
152.0000    1791
152.0200    1686
152.0400    1664
152.0600    1698
152.0800    1839
152.1000    1990
152.1200    1979
152.1400    1910
152.1600    1873
152.1800    1867
152.2000    1952
152.2200    2049
152.2400    2018
152.2600    1943
152.2800    1903
152.3000    1891
152.3200    1952
152.3400    2038
152.3600    2103
152.3800    2149
152.4000    2145
152.4200    2149
152.4400    2293
152.4600    2442
152.4800    2337
152.5000    2149
152.5200    2051
152.5400    2021
152.5600    2146
152.5800    2306
152.6000    2326
152.6200    2310
152.6400    2396
152.6600    2502
152.6800    2510
152.7000    2482
152.7200    2479
152.7400    2500
152.7600    2599
152.7800    2707
152.8000    2700
152.8200    2636
152.8400    2510
152.8600    2423
152.8800    2648
152.9000    2940
152.9200    2940
152.9400    2827
152.9600    2726
152.9800    2643
153.0000    2628
153.0200    2654
153.0400    2748
153.0600    2848
153.0800    2837
153.1000    2793
153.1200    2810
153.1400    2820
153.1600    2669
153.1800    2499
153.2000    2564
153.2200    2687
153.2400    2637
153.2600    2526
153.2800    2463
153.3000    2450
153.3200    2590
153.3400    2777
153.3600    2886
153.3800    2933
153.4000    2828
153.4200    2675
153.4400    2584
153.4600    2540
153.4800    2604
153.5000    2707
153.5200    2783
153.5400    2833
153.5600    2800
153.5800    2744
153.6000    2738
153.6200    2735
153.6400    2645
153.6600    2543
153.6800    2548
153.7000    2588
153.7200    2589
153.7400    2575
153.7600    2561
153.7800    2540
153.8000    2483
153.8200    2422
153.8400    2419
153.8600    2444
153.8800    2494
153.9000    2540
153.9200    2514
153.9400    2448
153.9600    2322
153.9800    2186
154.0000    2115
154.0200    2087
154.0400    2137
154.0600    2203
154.0800    2188
154.1000    2163
154.1200    2256
154.1400    2367
154.1600    2331
154.1800    2248
154.2000    2220
154.2200    2212
154.2400    2191
154.2600    2159
154.2800    2099
154.3000    2032
154.3200    1990
154.3400    1956
154.3600    1912
154.3800    1859
154.4000    1781
154.4200    1709
154.4400    1722
154.4600    1762
154.4800    1774
154.5000    1778
154.5200    1802
154.5400    1841
154.5600    1916
154.5800    1978
154.6000    1900
154.6200    1776
154.6400    1697
154.6600    1656
154.6800    1710
154.7000    1774
154.7200    1698
154.7400    1574
154.7600    1487
154.7800    1430
154.8000    1449
154.8200    1490
154.8400    1486
154.8600    1477
154.8800    1533
154.9000    1600
154.9200    1592
154.9400    1558
154.9600    1541
154.9800    1525
155.0000    1482
155.0200    1436
155.0400    1430
155.0600    1432
155.0800    1393
155.1000    1341
155.1200    1309
155.1400    1290
155.1600    1296
155.1800    1308
155.2000    1301
155.2200    1287
155.2400    1273
155.2600    1261
155.2800    1254
155.3000    1249
155.3200    1237
155.3400    1233
155.3600    1278
155.3800    1315
155.4000    1220
155.4200    1094
155.4400    1075
155.4600    1092
155.4800    1074
155.5000    1055
155.5200    1104
155.5400    1164
155.5600    1141
155.5800    1078
155.6000     985
155.6200     900
155.6400     920
155.6600     970
155.6800     958
155.7000     926
155.7200     912
155.7400     916
155.7600     965
155.7800    1015
155.8000     975
155.8200     921
155.8400     974
155.8600    1046
155.8800    1001
155.9000     922
155.9200     905
155.9400     900
155.9600     830
155.9800     750
156.0000     753
156.0200     781
156.0400     769
156.0600     746
156.0800     745
156.1000     749
156.1200     734
156.1400     706
156.1600     643
156.1800     593
156.2000     673
156.2200     787
156.2400     808
156.2600     788
156.2800     751
156.3000     710
156.3200     682
156.3400     662
156.3600     651
156.3800     639
156.4000     608
156.4200     592
156.4400     681
156.4600     795
156.4800     817
156.5000     790
156.5200     693
156.5400     590
156.5600     592
156.5800     632
156.6000     650
156.6200     658
156.6400     651
156.6600     631
156.6800     569
156.7000     521
156.7200     618
156.7400     743
156.7600     713
156.7800     629
156.8000     583
156.8200     568
156.8400     625
156.8600     710
156.8800     793
156.9000     845
156.9200     742
156.9400     601
156.9600     573
156.9800     591
157.0000     606
157.0200     620
157.0400     634
157.0600     651
157.0800     681
157.1000     709
157.1200     697
157.1400     667
157.1600     625
157.1800     580
157.2000     539
157.2200     508
157.2400     522
157.2600     549
157.2800     554
157.3000     548
157.3200     530
157.3400     519
157.3600     562
157.3800     609
157.4000     576
157.4200     522
157.4400     530
157.4600     549
157.4800     506
157.5000     461
157.5200     529
157.5400     619
157.5600     588
157.5800     516
157.6000     489
157.6200     481
157.6400     483
157.6600     496
157.6800     546
157.7000     596
157.7200     579
157.7400     539
157.7600     519
157.7800     511
157.8000     523
157.8200     540
157.8400     540
157.8600     529
157.8800     490
157.9000     454
157.9200     486
157.9400     535
157.9600     531
157.9800     516
158.0000     559
158.0200     608
158.0400     571
158.0600     503
158.0800     458
158.1000     428
158.1200     428
158.1400     448
158.1600     505
158.1800     554
158.2000     493
158.2200     402
158.2400     384
158.2600     395
158.2800     403
158.3000     402
158.3200     368
158.3400     332
158.3600     357
158.3800     401
158.4000     412
158.4200     412
158.4400     422
158.4600     435
158.4800     446
158.5000     443
158.5200     375
158.5400     309
158.5600     382
158.5800     483
158.6000     450
158.6200     384
158.6400     418
158.6600     479
158.6800     470
158.7000     432
158.7200     386
158.7400     348
158.7600     370
158.7800     407
158.8000     397
158.8200     379
158.8400     409
158.8600     447
158.8800     425
158.9000     379
158.9200     328
158.9400     288
158.9600     305
158.9800     344
159.0000     379
159.0200     408
159.0400     409
159.0600     396
159.0800     370
159.1000     342
159.1200     335
159.1400     338
159.1600     341
159.1800     349
159.2000     379
159.2200     407
159.2400     385
159.2600     357
159.2800     402
159.3000     470
159.3200     505
159.3400     516
159.3600     472
159.3800     411
159.4000     377
159.4200     353
159.4400     332
159.4600     320
159.4800     345
159.5000     382
159.5200     405
159.5400     426
159.5600     461
159.5800     489
159.6000     457
159.6200     405
159.6400     378
159.6600     349
159.6800     268
159.7000     200
159.7200     302
159.7400     448
159.7600     469
159.7800     443
159.8000     425
159.8200     408
159.8400     371
159.8600     341
159.8800     379
159.9000     432
159.9200     415
159.9400     376
159.9600     360
159.9800     350
160.0000     319
160.0200     282
160.0400     260
160.0600     248
160.0800     256
160.1000     263
160.1200     230
160.1400     199
160.1600     263
160.1800     359
160.2000     428
160.2200     464
160.2400     387
160.2600     280
160.2800     250
160.3000     248
160.3200     239
160.3400     234
160.3600     266
160.3800     306
160.4000     316
160.4200     314
160.4400     310
160.4600     311
160.4800     339
160.5000     372
160.5200     380
160.5400     372
160.5600     337
160.5800     296
160.6000     275
160.6200     269
160.6400     295
160.6600     322
160.6800     294
160.7000     262
160.7200     320
160.7400     390
160.7600     342
160.7800     262
160.8000     267
160.8200     294
160.8400     268
160.8600     228
160.8800     228
160.9000     245
160.9200     272
160.9400     296
160.9600     292
160.9800     279
161.0000     284
161.0200     298
161.0400     320
161.0600     345
161.0800     362
161.1000     371
161.1200     358
161.1400     341
161.1600     348
161.1800     356