File: XRD_Tool/XRD_Tool/bin/Debug/LDA_sample_name_56789_Psi-45_20180622-235734.txt
138.0000     263
138.0200     264
138.0400     279
138.0600     293
138.0800     280
138.1000     256
138.1200     229
138.1400     199
138.1600     164
138.1800     144
138.2000     214
138.2200     307
138.2400     335
138.2600     333
138.2800     309
138.3000     287
138.3200     312
138.3400     337
138.3600     270
138.3800     181
138.4000     167
138.4200     178
138.4400     164
138.4600     155
138.4800     218
138.5000     291
138.5200     269
138.5400     211
138.5600     164
138.5800     138
138.6000     192
138.6200     268
138.6400     293
138.6600     291
138.6800     259
138.7000     228
138.7200     265
138.7400     309
138.7600     253
138.7800     181
138.8000     231
138.8200     312
138.8400     310
138.8600     281
138.8800     290
138.9000     301
138.9200     244
138.9400     174
138.9600     179
138.9800     212
139.0000     238
139.0200     257
139.0400     251
139.0600     233
139.0800     202
139.1000     175
139.1200     193
139.1400     229
139.1600     265
139.1800     292
139.2000     277
139.2200     249
139.2400     238
139.2600     239
139.2800     268
139.3000     293
139.3200     240
139.3400     164
139.3600     128
139.3800     121
139.4000     180
139.4200     254
139.4400     263
139.4600     241
139.4800     191
139.5000     142
139.5200     156
139.5400     200
139.5600     264
139.5800     321
139.6000     301
139.6200     256
139.6400     231
139.6600     222
139.6800     248
139.7000     280
139.7200     274
139.7400     251
139.7600     225
139.7800     197
139.8000     170
139.8200     152
139.8400     174
139.8600     206
139.8800     205
139.9000     196
139.9200     212
139.9400     237
139.9600     255
139.9800     268
140.0000     268
140.0200     268
140.0400     298
140.0600     325
140.0800     275
140.1000     207
140.1200     201
140.1400     218
140.1600     230
140.1800     234
140.2000     210
140.2200     180
140.2400     185
140.2600     198
140.2800     186
140.3000     170
140.3200     186
140.3400     217
140.3600     268
140.3800     322
140.4000     354
140.4200     375
140.4400     378
140.4600     365
140.4800     310
140.5000     248
140.5200     236
140.5400     236
140.5600     198
140.5800     152
140.6000     148
140.6200     157
140.6400     151
140.6600     148
140.6800     193
140.7000     251
140.7200     279
140.7400     288
140.7600     259
140.7800     224
140.8000     239
140.8200     269
140.8400     281
140.8600     285
140.8800     294
140.9000     302
140.9200     298
140.9400     293
140.9600     303
140.9800     313
141.0000     291
141.0200     263
141.0400     265
141.0600     277
141.0800     279
141.1000     267
141.1200     204
141.1400     137
141.1600     158
141.1800     203
141.2000     195
141.2200     173
141.2400     191
141.2600     218
141.2800     213
141.3000     196
141.3200     179
141.3400     170
141.3600     196
141.3800     228
141.4000     217
141.4200     194
141.4400     201
141.4600     217
141.4800     221
141.5000     220
141.5200     212
141.5400     204
141.5600     201
141.5800     203
141.6000     217
141.6200     237
141.6400     269
141.6600     295
141.6800     276
141.7000     243
141.7200     237
141.7400     232
141.7600     185
141.7800     136
141.8000     164
141.8200     227
141.8400     315
141.8600     393
141.8800     374
141.9000     310
141.9200     215
141.9400     126
141.9600     132
141.9800     169
142.0000     172
142.0200     177
142.0400     256
142.0600     340
142.0800     307
142.1000     241
142.1200     243
142.1400     262
142.1600     223
142.1800     174
142.2000     193
142.2200     238
142.2400     277
142.2600     308
142.2800     317
142.3000     320
142.3200     338
142.3400     352
142.3600     314
142.3800     262
142.4000     239
142.4200     232
142.4400     250
142.4600     279
142.4800     316
142.5000     342
142.5200     298
142.5400     248
142.5600     306
142.5800     386
142.6000     353
142.6200     291
142.6400     312
142.6600     360
142.6800     378
142.7000     387
142.7200     406
142.7400     417
142.7600     365
142.7800     302
142.8000     316
142.8200     349
142.8400     330
142.8600     297
142.8800     297
142.9000     309
142.9200     306
142.9400     300
142.9600     304
142.9800     310
143.0000     308
143.0200     297
143.0400     264
143.0600     229
143.0800     228
143.1000     241
143.1200     260
143.1400     282
143.1600     299
143.1800     317
143.2000     342
143.2200     356
143.2400     300
143.2600     231
143.2800     237
143.3000     269
143.3200     284
143.3400     292
143.3600     297
143.3800     297
143.4000     282
143.4200     261
143.4400     247
143.4600     230
143.4800     193
143.5000     161
143.5200     199
143.5400     254
143.5600     254
143.5800     243
143.6000     285
143.6200     332
143.6400     294
143.6600     242
143.6800     288
143.7000     351
143.7200     294
143.7400     217
143.7600     272
143.7800     361
143.8000     360
143.8200     327
143.8400     321
143.8600     330
143.8800     364
143.9000     398
143.9200     385
143.9400     362
143.9600     381
143.9800     404
144.0000     362
144.0200     300
144.0400     269
144.0600     261
144.0800     300
144.1000     344
144.1200     321
144.1400     280
144.1600     284
144.1800     310
144.2000     353
144.2200     381
144.2400     301
144.2600     205
144.2800     249
144.3000     327
144.3200     300
144.3400     238
144.3600     214
144.3800     213
144.4000     247
144.4200     283
144.4400     256
144.4600     222
144.4800     283
144.5000     368
144.5200     391
144.5400     392
144.5600     408
144.5800     418
144.6000     368
144.6200     307
144.6400     308
144.6600     335
144.6800     365
144.7000     387
144.7200     356
144.7400     303
144.7600     248
144.7800     211
144.8000     266
144.8200     344
144.8400     357
144.8600     336
144.8800     283
144.9000     241
144.9200     318
144.9400     418
144.9600     401
144.9800     342
145.0000     310
145.0200     295
145.0400     313
145.0600     348
145.0800     395
145.1000     428
145.1200     371
145.1400     290
145.1600     274
145.1800     280
145.2000     269
145.2200     256
145.2400     268
145.2600     296
145.2800     349
145.3000     398
145.3200     369
145.3400     316
145.3600     299
145.3800     298
145.4000     302
145.4200     325
145.4400     428
145.4600     535
145.4800     497
145.5000     413
145.5200     389
145.5400     386
145.5600     368
145.5800     346
145.6000     332
145.6200     324
145.6400     321
145.6600     322
145.6800     325
145.7000     328
145.7200     331
145.7400     330
145.7600     316
145.7800     305
145.8000     344
145.8200     386
145.8400     350
145.8600     292
145.8800     287
145.9000     296
145.9200     270
145.9400     237
145.9600     237
145.9800     253
146.0000     274
146.0200     298
146.0400     319
146.0600     334
146.0800     327
146.1000     312
146.1200     302
146.1400     298
146.1600     314
146.1800     336
146.2000     348
146.2200     354
146.2400     352
146.2600     343
146.2800     317
146.3000     289
146.3200     278
146.3400     278
146.3600     298
146.3800     325
146.4000     348
146.4200     363
146.4400     338
146.4600     307
146.4800     323
146.5000     348
146.5200     330
146.5400     298
146.5600     291
146.5800     296
146.6000     316
146.6200     338
146.6400     343
146.6600     337
146.6800     311
146.7000     282
146.7200     275
146.7400     280
146.7600     302
146.7800     328
146.8000     347
146.8200     359
146.8400     348
146.8600     328
146.8800     311
146.9000     295
146.9200     276
146.9400     262
146.9600     279
146.9800     303
147.0000     294
147.0200     278
147.0400     294
147.0600     318
147.0800     323
147.1000     325
147.1200     346
147.1400     359
147.1600     297
147.1800     220
147.2000     221
147.2200     246
147.2400     236
147.2600     219
147.2800     237
147.3000     267
147.3200     285
147.3400     301
147.3600     326
147.3800     355
147.4000     394
147.4200     428
147.4400     425
147.4600     403
147.4800     358
147.5000     310
147.5200     292
147.5400     287
147.5600     290
147.5800     294
147.6000     285
147.6200     277
147.6400     299
147.6600     327
147.6800     327
147.7000     322
147.7200     355
147.7400     391
147.7600     367
147.7800     325
147.8000     313
147.8200     319
147.8400     353
147.8600     395
147.8800     414
147.9000     414
147.9200     367
147.9400     321
147.9600     375
147.9800     458
148.0000     486
148.0200     478
148.0400     395
148.0600     302
148.0800     306
148.1000     342
148.1200     350
148.1400     349
148.1600     364
148.1800     381
148.2000     368
148.2200     351
148.2400     366
148.2600     386
148.2800     366
148.3000     336
148.3200     336
148.3400     341
148.3600     314
148.3800     281
148.4000     285
148.4200     311
148.4400     375
148.4600     441
148.4800     437
148.5000     410
148.5200     406
148.5400     407
148.5600     383
148.5800     364
148.6000     415
148.6200     471
148.6400     407
148.6600     309
148.6800     278
148.7000     283
148.7200     333
148.7400     385
148.7600     358
148.7800     311
148.8000     318
148.8200     348
148.8400     393
148.8600     429
148.8800     393
148.9000     340
148.9200     340
148.9400     358
148.9600     355
148.9800     351
149.0000     392
149.0200     431
149.0400     373
149.0600     297
149.0800     318
149.1000     372
149.1200     399
149.1400     410
149.1600     398
149.1800     373
149.2000     336
149.2200     315
149.2400     398
149.2600     505
149.2800     528
149.3000     510
149.3200     449
149.3400     387
149.3600     408
149.3800     449
149.4000     420
149.4200     377
149.4400     399
149.4600     437
149.4800     423
149.5000     401
149.5200     438
149.5400     486
149.5600     475
149.5800     437
149.6000     374
149.6200     322
149.6400     367
149.6600     432
149.6800     407
149.7000     355
149.7200     356
149.7400     379
149.7600     404
149.7800     421
149.8000     396
149.8200     368
149.8400     410
149.8600     467
149.8800     456
149.9000     417
149.9200     373
149.9400     334
149.9600     333
149.9800     344
150.0000     337
150.0200     327
150.0400     337
150.0600     358
150.0800     397
150.1000     431
150.1200     404
150.1400     366
150.1600     401
150.1800     458
150.2000     480
150.2200     480
150.2400     438
150.2600     387
150.2800     371
150.3000     364
150.3200     329
150.3400     306
150.3600     400
150.3800     520
150.4000     543
150.4200     524
150.4400     487
150.4600     447
150.4800     432
150.5000     438
150.5200     504
150.5400     577
150.5600     567
150.5800     516
150.6000     430
150.6200     349
150.6400     366
150.6600     409
150.6800     385
150.7000     357
150.7200     436
150.7400     532
150.7600     498
150.7800     429
150.8000     447
150.8200     483
150.8400     442
150.8600     383
150.8800     387
150.9000     416
150.9200     439
150.9400     461
150.9600     496
150.9800     529
151.0000     529
151.0200     507
151.0400     445
151.0600     383
151.0800     399
151.1000     442
151.1200     458
151.1400     468
151.1600     498
151.1800     535
151.2000     564
151.2200     587
151.2400     593
151.2600     591
151.2800     576
151.3000     559
151.3200     560
151.3400     563
151.3600     538
151.3800     516
151.4000     564
151.4200     629
151.4400     642
151.4600     625
151.4800     563
151.5000     499
151.5200     515
151.5400     559
151.5600     583
151.5800     599
151.6000     612
151.6200     618
151.6400     597
151.6600     571
151.6800     573
151.7000     591
151.7200     626
151.7400     663
151.7600     673
151.7800     675
151.8000     685
151.8200     699
151.8400     712
151.8600     707
151.8800     622
151.9000     532
151.9200     585
151.9400     685
151.9600     735
151.9800     759
152.0000     753
152.0200     745
152.0400     782
152.0600     823
152.0800     789
152.1000     735
152.1200     731
152.1400     740
152.1600     711
152.1800     670
152.2000     647
152.2200     642
152.2400     690
152.2600     747
152.2800     738
152.3000     707
152.3200     702
152.3400     709
152.3600     720
152.3800     731
152.4000     737
152.4200     741
152.4400     748
152.4600     758
152.4800     775
152.5000     794
152.5200     813
152.5400     827
152.5600     821
152.5800     812
152.6000     831
152.6200     876
152.6400     996
152.6600    1116
152.6800    1083
152.7000    1018
152.7200    1096
152.7400    1193
152.7600    1095
152.7800     950
152.8000     962
152.8200    1020
152.8400     998
152.8600     971
152.8800    1082
152.9000    1213
152.9200    1168
152.9400    1082
152.9600    1151
152.9800    1255
153.0000    1231
153.0200    1173
153.0400    1210
153.0600    1276
153.0800    1302
153.1000    1302
153.1200    1255
153.1400    1195
153.1600    1164
153.1800    1153
153.2000    1187
153.2200    1239
153.2400    1291
153.2600    1337
153.2800    1358
153.3000    1369
153.3200    1383
153.3400    1408
153.3600    1475
153.3800    1553
153.4000    1604
153.4200    1630
153.4400    1583
153.4600    1522
153.4800    1539
153.5000    1576
153.5200    1558
153.5400    1541
153.5600    1639
153.5800    1763
153.6000    1784
153.6200    1764
153.6400    1745
153.6600    1736
153.6800    1772
153.7000    1817
153.7200    1814
153.7400    1785
153.7600    1719
153.7800    1648
153.8000    1622
153.8200    1626
153.8400    1692
153.8600    1766
153.8800    1762
153.9000    1747
153.9200    1840
153.9400    1965
153.9600    2033
153.9800    2063
154.0000    2008
154.0200    1916
154.0400    1804
154.0600    1723
154.0800    1839
154.1000    1998
154.1200    1984
154.1400    1930
154.1600    2027
154.1800    2165
154.2000    2198
154.2200    2185
154.2400    2144
154.2600    2084
154.2800    1985
154.3000    1895
154.3200    1925
154.3400    1999
154.3600    2053
154.3800    2098
154.4000    2137
154.4200    2165
154.4400    2153
154.4600    2138
154.4800    2193
154.5000    2274
154.5200    2348
154.5400    2395
154.5600    2319
154.5800    2221
154.6000    2266
154.6200    2347
154.6400    2318
154.6600    2264
154.6800    2297
154.7000    2338
154.7200    2245
154.7400    2114
154.7600    2057
154.7800    2035
154.8000    2043
154.8200    2083
154.8400    2223
154.8600    2375
154.8800    2392
154.9000    2360
154.9200    2358
154.9400    2362
154.9600    2336
154.9800    2293
155.0000    2228
155.0200    2185
155.0400    2292
155.0600    2425
155.0800    2385
155.1000    2293
155.1200    2289
155.1400    2309
155.1600    2266
155.1800    2203
155.2000    2170
155.2200    2141
155.2400    2075
155.2600    2020
155.2800    2088
155.3000    2184
155.3200    2170
155.3400    2140
155.3600    2245
155.3800    2359
155.4000    2241
155.4200    2060
155.4400    2019
155.4600    2032
155.4800    2027
155.5000    2001
155.5200    1906
155.5400    1811
155.5600    1850
155.5800    1940
155.6000    2023
155.6200    2079
155.6400    2015
155.6600    1932
155.6800    1996
155.7000    2079
155.7200    1965
155.7400    1803
155.7600    1791
155.7800    1825
155.8000    1786
155.8200    1728
155.8400    1723
155.8600    1735
155.8800    1724
155.9000    1698
155.9200    1643
155.9400    1594
155.9600    1627
155.9800    1683
156.0000    1687
156.0200    1679
156.0400    1709
156.0600    1767
156.0800    1880
156.1000    1980
156.1200    1897
156.1400    1751
156.1600    1656
156.1800    1597
156.2000    1612
156.2200    1638
156.2400    1575
156.2600    1489
156.2800    1460
156.3000    1461
156.3200    1497
156.3400    1527
156.3600    1459
156.3800    1372
156.4000    1393
156.4200    1457
156.4400    1523
156.4600    1574
156.4800    1550
156.5000    1486
156.5200    1370
156.5400    1248
156.5600    1194
156.5800    1167
156.6000    1134
156.6200    1121
156.6400    1228
156.6600    1368
156.6800    1436
156.7000    1450
156.7200    1334
156.7400    1195
156.7600    1199
156.7800    1248
156.8000    1229
156.8200    1193
156.8400    1207
156.8600    1231
156.8800    1208
156.9000    1161
156.9200    1086
156.9400    1022
156.9600    1068
156.9800    1145
157.0000    1159
157.0200    1142
157.0400    1105
157.0600    1054
157.0800     980
157.1000     917
157.1200     960
157.1400    1023
157.1600     971
157.1800     889
157.2000     884
157.2200     921
157.2400    1015
157.2600    1097
157.2800    1012
157.3000     878
157.3200     834
157.3400     835
157.3600     879
157.3800     918
157.4000     839
157.4200     730
157.4400     706
157.4600     715
157.4800     717
157.5000     723
157.5200     759
157.5400     802
157.5600     817
157.5800     806
157.6000     721
157.6200     640
157.6400     721
157.6600     851
157.6800     903
157.7000     914
157.7200     885
157.7400     838
157.7600     789
157.7800     753
157.8000     787
157.8200     826
157.8400     747
157.8600     648
157.8800     684
157.9000     750
157.9200     696
157.9400     620
157.9600     677
157.9800     772
158.0000     789
158.0200     774
158.0400     754
158.0600     728
158.0800     680
158.1000     641
158.1200     684
158.1400     748
158.1600     753
158.1800     742
158.2000     766
158.2200     781
158.2400     680
158.2600     554
158.2800     541
158.3000     570
158.3200     581
158.3400     595
158.3600     660
158.3800     724
158.4000     673
158.4200     587
158.4400     553
158.4600     543
158.4800     555
158.5000     576
158.5200     603
158.5400     620
158.5600     567
158.5800     499
158.6000     493
158.6200     518
158.6400     578
158.6600     638
158.6800     628
158.7000     594
158.7200     580
158.7400     574
158.7600     571
158.7800     568
158.8000     557
158.8200     546
158.8400     550
158.8600     551
158.8800     509
158.9000     450
158.9200     399
158.9400     368
158.9600     424
158.9800     505
159.0000     544
159.0200     559
159.0400     538
159.0600     510
159.0800     525
159.1000     546
159.1200     514
159.1400     474
159.1600     506
159.1800     556
159.2000     561
159.2200     542
159.2400     501
159.2600     464
159.2800     487
159.3000     531
159.3200     555
159.3400     564
159.3600     538
159.3800     503
159.4000     491
159.4200     481
159.4400     426
159.4600     369
159.4800     389
159.5000     438
159.5200     482
159.5400     515
159.5600     501
159.5800     467
159.6000     420
159.6200     381
159.6400     410
159.6600     451
159.6800     414
159.7000     357
159.7200     356
159.7400     381
159.7600     420
159.7800     453
159.8000     436
159.8200     407
159.8400     421
159.8600     446
159.8800     436
159.9000     412
159.9200     385
159.9400     364
159.9600     381
159.9800     404
160.0000     382
160.0200     352
160.0400     370
160.0600     407
160.0800     438
160.1000     454
160.1200     410
160.1400     360
160.1600     403
160.1800     471
160.2000     477
160.2200     460
160.2400     447
160.2600     442
160.2800     477
160.3000     506
160.3200     433
160.3400     345
160.3600     384
160.3800     455
160.4000     434
160.4200     383
160.4400     364
160.4600     356
160.4800     340
160.5000     334
160.5200     401
160.5400     482
160.5600     486
160.5800     468
160.6000     489
160.6200     516
160.6400     498
160.6600     453
160.6800     368
160.7000     289
160.7200     325
160.7400     391
160.7600     377
160.7800     336
160.8000     318
160.8200     315
160.8400     337
160.8600     362
160.8800     352
160.9000     324
160.9200     274
160.9400     235
160.9600     291
160.9800     373
161.0000     395
161.0200     387
161.0400     348
161.0600     301
161.0800     282
161.1000     276
161.1200     282
161.1400     289
161.1600     279
161.1800     263
161.2000     244
161.2200     233
161.2400     270
161.2600     313
161.2800     289
161.3000     249
161.3200     259
161.3400     288
161.3600     307
161.3800     325
161.4000     350
161.4200     375
161.4400     386
161.4600     388
161.4800     369
161.5000     345
161.5200     342
161.5400     343
161.5600     314
161.5800     287
161.6000     325
161.6200     374
161.6400     348
161.6600     303
161.6800     311
161.7000     330
161.7200     289
161.7400     240
161.7600     263
161.7800     308
161.8000     323
161.8200     329
161.8400     358
161.8600     381
161.8800     324
161.9000     244
161.9200     204
161.9400     186
161.9600     195
161.9800     217