File: XRD_Tool/XRD_Tool/bin/Debug/LDA_sample_name_56789_Psi-15_20180622-214052.txt
137.2000    1160
137.2200    1145
137.2400    1162
137.2600    1181
137.2800    1147
137.3000    1103
137.3200    1120
137.3400    1157
137.3600    1166
137.3800    1172
137.4000    1218
137.4200    1267
137.4400    1251
137.4600    1217
137.4800    1225
137.5000    1243
137.5200    1236
137.5400    1217
137.5600    1191
137.5800    1167
137.6000    1163
137.6200    1170
137.6400    1192
137.6600    1208
137.6800    1160
137.7000    1103
137.7200    1116
137.7400    1150
137.7600    1143
137.7800    1125
137.8000    1142
137.8200    1183
137.8400    1281
137.8600    1375
137.8800    1340
137.9000    1262
137.9200    1221
137.9400    1205
137.9600    1240
137.9800    1284
138.0000    1263
138.0200    1232
138.0400    1278
138.0600    1333
138.0800    1283
138.1000    1202
138.1200    1180
138.1400    1186
138.1600    1227
138.1800    1267
138.2000    1237
138.2200    1185
138.2400    1163
138.2600    1152
138.2800    1139
138.3000    1129
138.3200    1139
138.3400    1158
138.3600    1181
138.3800    1197
138.4000    1176
138.4200    1153
138.4400    1193
138.4600    1247
138.4800    1243
138.5000    1216
138.5200    1197
138.5400    1188
138.5600    1209
138.5800    1237
138.6000    1235
138.6200    1223
138.6400    1216
138.6600    1214
138.6800    1220
138.7000    1234
138.7200    1270
138.7400    1299
138.7600    1256
138.7800    1197
138.8000    1198
138.8200    1213
138.8400    1170
138.8600    1130
138.8800    1225
138.9000    1344
138.9200    1316
138.9400    1242
138.9600    1227
138.9800    1228
139.0000    1199
139.0200    1165
139.0400    1174
139.0600    1200
139.0800    1223
139.1000    1238
139.1200    1220
139.1400    1196
139.1600    1218
139.1800    1254
139.2000    1269
139.2200    1268
139.2400    1230
139.2600    1188
139.2800    1196
139.3000    1219
139.3200    1215
139.3400    1213
139.3600    1271
139.3800    1340
139.4000    1344
139.4200    1318
139.4400    1272
139.4600    1222
139.4800    1191
139.5000    1181
139.5200    1244
139.5400    1323
139.5600    1337
139.5800    1325
139.6000    1311
139.6200    1284
139.6400    1192
139.6600    1091
139.6800    1077
139.7000    1090
139.7200    1066
139.7400    1051
139.7600    1151
139.7800    1274
139.8000    1282
139.8200    1248
139.8400    1236
139.8600    1233
139.8800    1235
139.9000    1243
139.9200    1269
139.9400    1294
139.9600    1274
139.9800    1239
140.0000    1217
140.0200    1203
140.0400    1193
140.0600    1192
140.0800    1226
140.1000    1268
140.1200    1281
140.1400    1287
140.1600    1311
140.1800    1337
140.2000    1330
140.2200    1300
140.2400    1222
140.2600    1132
140.2800    1083
140.3000    1071
140.3200    1158
140.3400    1257
140.3600    1226
140.3800    1152
140.4000    1132
140.4200    1145
140.4400    1228
140.4600    1313
140.4800    1275
140.5000    1205
140.5200    1226
140.5400    1275
140.5600    1274
140.5800    1255
140.6000    1239
140.6200    1227
140.6400    1224
140.6600    1225
140.6800    1237
140.7000    1246
140.7200    1214
140.7400    1168
140.7600    1135
140.7800    1115
140.8000    1135
140.8200    1162
140.8400    1142
140.8600    1108
140.8800    1093
140.9000    1092
140.9200    1131
140.9400    1174
140.9600    1165
140.9800    1144
141.0000    1168
141.0200    1206
141.0400    1224
141.0600    1230
141.0800    1211
141.1000    1181
141.1200    1141
141.1400    1119
141.1600    1205
141.1800    1314
141.2000    1315
141.2200    1272
141.2400    1224
141.2600    1184
141.2800    1194
141.3000    1223
141.3200    1248
141.3400    1273
141.3600    1302
141.3800    1319
141.4000    1272
141.4200    1218
141.4400    1251
141.4600    1300
141.4800    1254
141.5000    1190
141.5200    1228
141.5400    1293
141.5600    1294
141.5800    1266
141.6000    1215
141.6200    1168
141.6400    1182
141.6600    1222
141.6800    1261
141.7000    1295
141.7200    1312
141.7400    1323
141.7600    1341
141.7800    1345
141.8000    1271
141.8200    1178
141.8400    1152
141.8600    1161
141.8800    1218
141.9000    1281
141.9200    1277
141.9400    1247
141.9600    1215
141.9800    1191
142.0000    1204
142.0200    1235
142.0400    1281
142.0600    1330
142.0800    1368
142.1000    1392
142.1200    1375
142.1400    1338
142.1600    1275
142.1800    1214
142.2000    1220
142.2200    1251
142.2400    1280
142.2600    1296
142.2800    1250
142.3000    1199
142.3200    1242
142.3400    1305
142.3600    1284
142.3800    1239
142.4000    1234
142.4200    1255
142.4400    1321
142.4600    1383
142.4800    1338
142.5000    1262
142.5200    1247
142.5400    1244
142.5600    1189
142.5800    1140
142.6000    1224
142.6200    1336
142.6400    1320
142.6600    1259
142.6800    1233
142.7000    1224
142.7200    1228
142.7400    1237
142.7600    1240
142.7800    1245
142.8000    1280
142.8200    1320
142.8400    1328
142.8600    1321
142.8800    1303
142.9000    1274
142.9200    1225
142.9400    1182
142.9600    1217
142.9800    1271
143.0000    1262
143.0200    1232
143.0400    1225
143.0600    1221
143.0800    1184
143.1000    1155
143.1200    1236
143.1400    1342
143.1600    1355
143.1800    1331
143.2000    1306
143.2200    1293
143.2400    1330
143.2600    1367
143.2800    1296
143.3000    1204
143.3200    1227
143.3400    1286
143.3600    1298
143.3800    1288
143.4000    1258
143.4200    1229
143.4400    1242
143.4600    1272
143.4800    1305
143.5000    1338
143.5200    1361
143.5400    1372
143.5600    1340
143.5800    1299
143.6000    1303
143.6200    1312
143.6400    1257
143.6600    1191
143.6800    1195
143.7000    1221
143.7200    1214
143.7400    1200
143.7600    1216
143.7800    1241
143.8000    1249
143.8200    1252
143.8400    1255
143.8600    1265
143.8800    1303
143.9000    1340
143.9200    1314
143.9400    1273
143.9600    1285
143.9800    1312
144.0000    1299
144.0200    1275
144.0400    1273
144.0600    1271
144.0800    1234
144.1000    1190
144.1200    1190
144.1400    1216
144.1600    1292
144.1800    1374
144.2000    1391
144.2200    1374
144.2400    1320
144.2600    1270
144.2800    1308
144.3000    1363
144.3200    1323
144.3400    1261
144.3600    1279
144.3800    1322
144.4000    1327
144.4200    1317
144.4400    1312
144.4600    1310
144.4800    1316
144.5000    1323
144.5200    1313
144.5400    1294
144.5600    1259
144.5800    1226
144.6000    1238
144.6200    1268
144.6400    1301
144.6600    1332
144.6800    1345
144.7000    1346
144.7200    1322
144.7400    1290
144.7600    1269
144.7800    1265
144.8000    1316
144.8200    1382
144.8400    1405
144.8600    1394
144.8800    1301
144.9000    1206
144.9200    1264
144.9400    1357
144.9600    1310
144.9800    1225
145.0000    1227
145.0200    1257
145.0400    1259
145.0600    1251
145.0800    1251
145.1000    1252
145.1200    1240
145.1400    1215
145.1600    1157
145.1800    1107
145.2000    1170
145.2200    1261
145.2400    1267
145.2600    1243
145.2800    1241
145.3000    1238
145.3200    1188
145.3400    1131
145.3600    1129
145.3800    1150
145.4000    1174
145.4200    1204
145.4400    1249
145.4600    1288
145.4800    1260
145.5000    1212
145.5200    1192
145.5400    1195
145.5600    1248
145.5800    1300
145.6000    1241
145.6200    1166
145.6400    1241
145.6600    1358
145.6800    1388
145.7000    1379
145.7200    1347
145.7400    1308
145.7600    1284
145.7800    1262
145.8000    1221
145.8200    1180
145.8400    1171
145.8600    1180
145.8800    1216
145.9000    1254
145.9200    1254
145.9400    1239
145.9600    1230
145.9800    1230
146.0000    1262
146.0200    1299
146.0400    1303
146.0600    1287
146.0800    1239
146.1000    1190
146.1200    1200
146.1400    1226
146.1600    1222
146.1800    1213
146.2000    1240
146.2200    1282
146.2400    1323
146.2600    1354
146.2800    1345
146.3000    1326
146.3200    1342
146.3400    1354
146.3600    1279
146.3800    1190
146.4000    1208
146.4200    1257
146.4400    1251
146.4600    1232
146.4800    1258
146.5000    1302
146.5200    1342
146.5400    1369
146.5600    1328
146.5800    1280
146.6000    1335
146.6200    1412
146.6400    1395
146.6600    1345
146.6800    1332
146.7000    1335
146.7200    1356
146.7400    1386
146.7600    1429
146.7800    1463
146.8000    1424
146.8200    1350
146.8400    1244
146.8600    1165
146.8800    1283
146.9000    1447
146.9200    1451
146.9400    1392
146.9600    1340
146.9800    1305
147.0000    1345
147.0200    1403
147.0400    1399
147.0600    1365
147.0800    1299
147.1000    1238
147.1200    1264
147.1400    1318
147.1600    1340
147.1800    1360
147.2000    1427
147.2200    1489
147.2400    1429
147.2600    1338
147.2800    1330
147.3000    1356
147.3200    1380
147.3400    1403
147.3600    1420
147.3800    1425
147.4000    1385
147.4200    1339
147.4400    1354
147.4600    1381
147.4800    1342
147.5000    1289
147.5200    1306
147.5400    1345
147.5600    1362
147.5800    1371
147.6000    1380
147.6200    1390
147.6400    1399
147.6600    1398
147.6800    1353
147.7000    1313
147.7200    1383
147.7400    1473
147.7600    1442
147.7800    1373
147.8000    1364
147.8200    1368
147.8400    1320
147.8600    1271
147.8800    1321
147.9000    1394
147.9200    1395
147.9400    1375
147.9600    1398
147.9800    1434
148.0000    1447
148.0200    1438
148.0400    1366
148.0600    1292
148.0800    1338
148.1000    1415
148.1200    1407
148.1400    1378
148.1600    1415
148.1800    1471
148.2000    1482
148.2200    1467
148.2400    1409
148.2600    1350
148.2800    1374
148.3000    1416
148.3200    1373
148.3400    1319
148.3600    1372
148.3800    1444
148.4000    1399
148.4200    1320
148.4400    1309
148.4600    1323
148.4800    1328
148.5000    1325
148.5200    1310
148.5400    1300
148.5600    1340
148.5800    1405
148.6000    1493
148.6200    1567
148.6400    1521
148.6600    1441
148.6800    1431
148.7000    1452
148.7200    1485
148.7400    1513
148.7600    1494
148.7800    1460
148.8000    1443
148.8200    1432
148.8400    1419
148.8600    1405
148.8800    1391
148.9000    1380
148.9200    1381
148.9400    1382
148.9600    1359
148.9800    1337
149.0000    1362
149.0200    1405
149.0400    1445
149.0600    1473
149.0800    1451
149.1000    1420
149.1200    1449
149.1400    1490
149.1600    1473
149.1800    1437
149.2000    1421
149.2200    1410
149.2400    1384
149.2600    1367
149.2800    1425
149.3000    1492
149.3200    1453
149.3400    1388
149.3600    1395
149.3800    1423
149.4000    1411
149.4200    1396
149.4400    1448
149.4600    1505
149.4800    1460
149.5000    1392
149.5200    1409
149.5400    1447
149.5600    1417
149.5800    1372
149.6000    1397
149.6200    1437
149.6400    1417
149.6600    1383
149.6800    1403
149.7000    1443
149.7200    1484
149.7400    1509
149.7600    1449
149.7800    1384
149.8000    1461
149.8200    1574
149.8400    1580
149.8600    1548
149.8800    1540
149.9000    1532
149.9200    1489
149.9400    1440
149.9600    1436
149.9800    1445
150.0000    1432
150.0200    1420
150.0400    1456
150.0600    1502
150.0800    1495
150.1000    1478
150.1200    1520
150.1400    1571
150.1600    1557
150.1800    1522
150.2000    1512
150.2200    1515
150.2400    1536
150.2600    1559
150.2800    1559
150.3000    1555
150.3200    1583
150.3400    1608
150.3600    1557
150.3800    1499
150.4000    1546
150.4200    1625
150.4400    1646
150.4600    1635
150.4800    1582
150.5000    1538
150.5200    1621
150.5400    1723
150.5600    1667
150.5800    1575
150.6000    1629
150.6200    1730
150.6400    1773
150.6600    1776
150.6800    1694
150.7000    1597
150.7200    1593
150.7400    1630
150.7600    1680
150.7800    1741
150.8000    1824
150.8200    1890
150.8400    1824
150.8600    1725
150.8800    1721
150.9000    1757
150.9200    1803
150.9400    1842
150.9600    1824
150.9800    1798
151.0000    1839
151.0200    1892
151.0400    1868
151.0600    1822
151.0800    1811
151.1000    1816
151.1200    1824
151.1400    1842
151.1600    1902
151.1800    1962
151.2000    1946
151.2200    1898
151.2400    1855
151.2600    1817
151.2800    1799
151.3000    1803
151.3200    1878
151.3400    1958
151.3600    1911
151.3800    1831
151.4000    1826
151.4200    1853
151.4400    1882
151.4600    1915
151.4800    1965
151.5000    2025
151.5200    2106
151.5400    2177
151.5600    2153
151.5800    2095
151.6000    2059
151.6200    2041
151.6400    2070
151.6600    2108
151.6800    2095
151.7000    2081
151.7200    2154
151.7400    2249
151.7600    2282
151.7800    2288
151.8000    2281
151.8200    2279
151.8400    2327
151.8600    2389
151.8800    2423
151.9000    2450
151.9200    2505
151.9400    2549
151.9600    2480
151.9800    2390
152.0000    2418
152.0200    2503
152.0400    2630
152.0600    2748
152.0800    2739
152.1000    2681
152.1200    2631
152.1400    2593
152.1600    2597
152.1800    2622
152.2000    2670
152.2200    2717
152.2400    2706
152.2600    2682
152.2800    2711
152.3000    2765
152.3200    2838
152.3400    2911
152.3600    2949
152.3800    2962
152.4000    2921
152.4200    2873
152.4400    2895
152.4600    2931
152.4800    2894
152.5000    2847
152.5200    2895
152.5400    2973
152.5600    3013
152.5800    3038
152.6000    3069
152.6200    3096
152.6400    3085
152.6600    3053
152.6800    2994
152.7000    2966
152.7200    3148
152.7400    3380
152.7600    3444
152.7800    3441
152.8000    3441
152.8200    3428
152.8400    3335
152.8600    3240
152.8800    3293
152.9000    3395
152.9200    3444
152.9400    3463
152.9600    3439
152.9800    3405
153.0000    3414
153.0200    3444
153.0400    3494
153.0600    3547
153.0800    3573
153.1000    3601
153.1200    3688
153.1400    3764
153.1600    3672
153.1800    3537
153.2000    3526
153.2200    3557
153.2400    3543
153.2600    3513
153.2800    3494
153.3000    3505
153.3200    3652
153.3400    3826
153.3600    3858
153.3800    3828
153.4000    3768
153.4200    3688
153.4400    3563
153.4600    3444
153.4800    3438
153.5000    3478
153.5200    3518
153.5400    3558
153.5600    3592
153.5800    3618
153.6000    3614
153.6200    3601
153.6400    3603
153.6600    3616
153.6800    3655
153.7000    3701
153.7200    3727
153.7400    3721
153.7600    3595
153.7800    3443
153.8000    3400
153.8200    3400
153.8400    3405
153.8600    3402
153.8800    3354
153.9000    3303
153.9200    3330
153.9400    3375
153.9600    3355
153.9800    3312
154.0000    3279
154.0200    3254
154.0400    3248
154.0600    3248
154.0800    3254
154.1000    3271
154.1200    3330
154.1400    3385
154.1600    3337
154.1800    3257
154.2000    3227
154.2200    3220
154.2400    3226
154.2600    3224
154.2800    3152
154.3000    3071
154.3200    3083
154.3400    3105
154.3600    2984
154.3800    2837
154.4000    2848
154.4200    2912
154.4400    2926
154.4600    2918
154.4800    2895
154.5000    2871
154.5200    2871
154.5400    2879
154.5600    2890
154.5800    2890
154.6000    2827
154.6200    2748
154.6400    2713
154.6600    2711
154.6800    2780
154.7000    2846
154.7200    2767
154.7400    2642
154.7600    2580
154.7800    2548
154.8000    2536
154.8200    2534
154.8400    2542
154.8600    2549
154.8800    2531
154.9000    2508
154.9200    2507
154.9400    2513
154.9600    2510
154.9800    2510
155.0000    2539
155.0200    2572
155.0400    2570
155.0600    2546
155.0800    2485
155.1000    2411
155.1200    2347
155.1400    2294
155.1600    2274
155.1800    2266
155.2000    2248
155.2200    2222
155.2400    2175
155.2600    2138
155.2800    2197
155.3000    2275
155.3200    2255
155.3400    2206
155.3600    2214
155.3800    2232
155.4000    2190
155.4200    2124
155.4400    2063
155.4600    2018
155.4800    2044
155.5000    2096
155.5200    2123
155.5400    2128
155.5600    2065
155.5800    1992
155.6000    2005
155.6200    2040
155.6400    2007
155.6600    1955
155.6800    1943
155.7000    1941
155.7200    1911
155.7400    1876
155.7600    1877
155.7800    1894
155.8000    1910
155.8200    1915
155.8400    1864
155.8600    1802
155.8800    1790
155.9000    1787
155.9200    1728
155.9400    1661
155.9600    1669
155.9800    1708
156.0000    1755
156.0200    1800
156.0400    1815
156.0600    1821
156.0800    1840
156.1000    1852
156.1200    1805
156.1400    1744
156.1600    1744
156.1800    1757
156.2000    1715
156.2200    1662
156.2400    1663
156.2600    1685
156.2800    1710
156.3000    1725
156.3200    1684
156.3400    1621
156.3600    1566
156.3800    1521
156.4000    1511
156.4200    1530
156.4400    1622
156.4600    1717
156.4800    1675
156.5000    1603
156.5200    1650
156.5400    1716
156.5600    1645
156.5800    1540
156.6000    1540
156.6200    1579
156.6400    1605
156.6600    1614
156.6800    1566
156.7000    1503
156.7200    1475
156.7400    1466
156.7600    1480
156.7800    1498
156.8000    1485
156.8200    1473
156.8400    1533
156.8600    1617
156.8800    1680
156.9000    1724
156.9200    1703
156.9400    1662
156.9600    1644
156.9800    1642
157.0000    1669
157.0200    1702
157.0400    1712
157.0600    1708
157.0800    1687
157.1000    1655
157.1200    1603
157.1400    1548
157.1600    1520
157.1800    1508
157.2000    1529
157.2200    1551
157.2400    1513
157.2600    1462
157.2800    1463
157.3000    1480
157.3200    1475
157.3400    1466
157.3600    1481
157.3800    1507
157.4000    1544
157.4200    1579
157.4400    1574
157.4600    1550
157.4800    1504
157.5000    1461
157.5200    1475
157.5400    1507
157.5600    1517
157.5800    1517
157.6000    1504
157.6200    1488
157.6400    1482
157.6600    1481
157.6800    1485
157.7000    1495
157.7200    1530
157.7400    1567
157.7600    1567
157.7800    1557
157.8000    1567
157.8200    1581
157.8400    1570
157.8600    1551
157.8800    1539
157.9000    1528
157.9200    1512
157.9400    1496
157.9600    1495
157.9800    1492
158.0000    1456
158.0200    1422
158.0400    1471
158.0600    1537
158.0800    1521
158.1000    1472
158.1200    1418
158.1400    1370
158.1600    1361
158.1800    1363
158.2000    1346
158.2200    1338
158.2400    1405
158.2600    1486
158.2800    1482
158.3000    1441
158.3200    1385
158.3400    1339
158.3600    1375
158.3800    1430
158.4000    1420
158.4200    1399
158.4400    1453
158.4600    1518
158.4800    1486
158.5000    1423
158.5200    1395
158.5400    1383
158.5600    1381
158.5800    1375
158.6000    1329
158.6200    1284
158.6400    1326
158.6600    1397
158.6800    1445
158.7000    1467
158.7200    1412
158.7400    1334
158.7600    1293
158.7800    1275
158.8000    1298
158.8200    1334
158.8400    1345
158.8600    1348
158.8800    1358
158.9000    1371
158.9200    1389
158.9400    1406
158.9600    1410
158.9800    1399
159.0000    1346
159.0200    1288
159.0400    1292
159.0600    1317
159.0800    1325
159.1000    1331
159.1200    1356
159.1400    1376
159.1600    1339
159.1800    1293
159.2000    1315
159.2200    1355
159.2400    1342
159.2600    1316
159.2800    1333
159.3000    1364
159.3200    1380
159.3400    1379
159.3600    1322
159.3800    1254
159.4000    1247
159.4200    1261
159.4400    1255
159.4600    1247
159.4800    1268
159.5000    1297
159.5200    1311
159.5400    1321
159.5600    1342
159.5800    1362
159.6000    1351
159.6200    1329
159.6400    1318
159.6600    1307
159.6800    1271
159.7000    1243
159.7200    1302
159.7400    1381
159.7600    1386
159.7800    1358
159.8000    1309
159.8200    1254
159.8400    1214
159.8600    1201
159.8800    1294
159.9000    1400
159.9200    1355
159.9400    1266
159.9600    1262
159.9800    1286
160.0000    1282
160.0200    1267
160.0400    1262
160.0600    1265
160.0800    1296
160.1000    1328
160.1200    1310
160.1400    1270
160.1600    1219
160.1800    1184
160.2000    1257
160.2200    1346
160.2400    1302
160.2600    1223
160.2800    1244
160.3000    1287
160.3200    1248
160.3400    1185
160.3600    1164
160.3800    1168
160.4000    1216
160.4200    1263
160.4400    1225
160.4600    1164
160.4800    1161
160.5000    1188
160.5200    1250
160.5400    1312
160.5600    1306
160.5800    1272
160.6000    1243
160.6200    1216
160.6400    1196
160.6600    1183
160.6800    1195
160.7000    1220
160.7200    1263
160.7400    1301
160.7600    1277
160.7800    1242
160.8000    1271
160.8200    1317
160.8400    1325
160.8600    1314
160.8800    1293
160.9000    1269
160.9200    1253
160.9400    1235
160.9600    1184
160.9800    1143
161.0000    1223
161.0200    1325
161.0400    1291
161.0600    1217
161.0800    1212
161.1000    1235
161.1200    1250
161.1400    1250
161.1600    1190
161.1800    1125