File: XRD_Tool/XRD_Tool/bin/Debug/LDA_sample_name_56789_Psi-15_20180622-205754.txt
127.2000      39
127.2400      33
127.2800      41
127.3200      48
127.3600      37
127.4000      47
127.4400      37
127.4800       7
127.5200      11
127.5600      18
127.6000       0
127.6400       0
127.6800      25
127.7200      47
127.7600      72
127.8000      77
127.8400      49
127.8800      35
127.9200      36
127.9600      46
128.0000      46
128.0400      41
128.0800       3
128.1200      18
128.1600      64
128.2000      24
128.2400      54
128.2800      60
128.3200      38
128.3600      31
128.4000      43
128.4400      45
128.4800      19
128.5200      39
128.5600      44
128.6000      35
128.6400      36
128.6800      39
128.7200      13
128.7600      18
128.8000      58
128.8400      63
128.8800      29
128.9200      41
128.9600      25
129.0000      47
129.0400      92
129.0800      81
129.1200      55
129.1600      12
129.2000      40
129.2400      73
129.2800      75
129.3200      63
129.3600      21
129.4000      78
129.4400     103
129.4800      94
129.5200      47
129.5600      21
129.6000      54
129.6400      25
129.6800      47
129.7200      49
129.7600      30
129.8000      33
129.8400      34
129.8800       6
129.9200      24
129.9600      44
130.0000      47
130.0400      26
130.0800      38
130.1200      66
130.1600      45
130.2000      60
130.2400      98
130.2800      42
130.3200       3
130.3600      -3
130.4000      51
130.4400     102
130.4800      72
130.5200      31
130.5600      36
130.6000      70
130.6400      87
130.6800      66
130.7200      59
130.7600      18
130.8000      45
130.8400      69
130.8800      50
130.9200      19
130.9600      33
131.0000      20
131.0400      16
131.0800      70
131.1200      62
131.1600      40
131.2000      71
131.2400      61
131.2800      73
131.3200      59
131.3600      23
131.4000      33
131.4400      59
131.4800      57
131.5200      55
131.5600      33
131.6000      14
131.6400      17
131.6800      25
131.7200      37
131.7600      29
131.8000      40
131.8400      42
131.8800      61
131.9200      69
131.9600      42
132.0000      43
132.0400      52
132.0800      60
132.1200      26
132.1600      14
132.2000      31
132.2400      61
132.2800      66
132.3200      88
132.3600      55
132.4000      33
132.4400      45
132.4800      27
132.5200      42
132.5600      43
132.6000      25
132.6400      31
132.6800      61
132.7200      56
132.7600      72
132.8000      40
132.8400      37
132.8800      32
132.9200      49
132.9600      27
133.0000      47
133.0400      92
133.0800      81
133.1200      56
133.1600      30
133.2000      11
133.2400      39
133.2800      34
133.3200      30
133.3600      39
133.4000      19
133.4400      45
133.4800      56
133.5200      35
133.5600      24
133.6000      51
133.6400      63
133.6800      79
133.7200      55
133.7600      52
133.8000      70
133.8400      83
133.8800      41
133.9200      48
133.9600      69
134.0000     105
134.0400      49
134.0800      40
134.1200      64
134.1600      62
134.2000      53
134.2400      26
134.2800      34
134.3200      73
134.3600      55
134.4000      35
134.4400      37
134.4800      62
134.5200      75
134.5600      65
134.6000      52
134.6400      17
134.6800      38
134.7200      74
134.7600      51
134.8000      17
134.8400      60
134.8800      71
134.9200      64
134.9600      46
135.0000      36
135.0400      50
135.0800      29
135.1200      41
135.1600      12
135.2000     -16
135.2400       1
135.2800      28
135.3200      48
135.3600       5
135.4000      45
135.4400      83
135.4800      84
135.5200      87
135.5600      65
135.6000      41
135.6400      32
135.6800      70
135.7200      94
135.7600      54
135.8000      56
135.8400      10
135.8800      40
135.9200      80
135.9600      77
136.0000      48
136.0400      22
136.0800      52
136.1200      38
136.1600      15
136.2000      28
136.2400      60
136.2800      51
136.3200      66
136.3600      67
136.4000      45
136.4400      68
136.4800      98
136.5200      86
136.5600      64
136.6000      43
136.6400      20
136.6800      25
136.7200      84
136.7600      93
136.8000      52
136.8400      35
136.8800      28
136.9200      85
136.9600      77
137.0000      61
137.0400      55
137.0800      12
137.1200      41
137.1600      92
137.2000      76
137.2400      66
137.2800      92
137.3200      76
137.3600      53
137.4000      26
137.4400      26
137.4800      21
137.5200      48
137.5600      66
137.6000      50
137.6400     102
137.6800     111
137.7200      59
137.7600      77
137.8000      99
137.8400      82
137.8800      34
137.9200      27
137.9600      40
138.0000      34
138.0400      44
138.0800      62
138.1200      72
138.1600      55
138.2000      54
138.2400      53
138.2800      39
138.3200      88
138.3600      76
138.4000      48
138.4400      78
138.4800      63
138.5200      44
138.5600      54
138.6000      54
138.6400      56
138.6800      50
138.7200      63
138.7600      46
138.8000      62
138.8400      40
138.8800       0
138.9200      28
138.9600      31
139.0000      36
139.0400      68
139.0800      58
139.1200      58
139.1600      54
139.2000      88
139.2400      64
139.2800      55
139.3200      46
139.3600      35
139.4000      36
139.4400      46
139.4800      46
139.5200      43
139.5600      45
139.6000      75
139.6400      89
139.6800      50
139.7200      39
139.7600      69
139.8000      72
139.8400      47
139.8800      46
139.9200      50
139.9600      32
140.0000      53
140.0400      21
140.0800      60
140.1200      77
140.1600      46
140.2000      30
140.2400      27
140.2800      22
140.3200      26
140.3600      63
140.4000      57
140.4400      44
140.4800      50
140.5200      75
140.5600      45
140.6000      40
140.6400      43
140.6800      75
140.7200      49
140.7600      70
140.8000      52
140.8400      34
140.8800      67
140.9200      84
140.9600      89
141.0000     101
141.0400      81
141.0800      72
141.1200      61
141.1600      70
141.2000      27
141.2400      29
141.2800      77
141.3200      38
141.3600      44
141.4000      37
141.4400      35
141.4800      33
141.5200      22
141.5600      20
141.6000      24
141.6400       7
141.6800       6
141.7200      24
141.7600      67
141.8000      51
141.8400      63
141.8800      51
141.9200      28
141.9600      76
142.0000      76
142.0400      54
142.0800      48
142.1200      78
142.1600      57
142.2000      24
142.2400      10
142.2800      27
142.3200      81
142.3600      78
142.4000     100
142.4400      84
142.4800      17
142.5200      34
142.5600      50
142.6000      70
142.6400      83
142.6800      83
142.7200      72
142.7600      51
142.8000      33
142.8400      37
142.8800      18
142.9200      25
142.9600      56
143.0000      61
143.0400      44
143.0800      48
143.1200      87
143.1600      81
143.2000      66
143.2400      39
143.2800      73
143.3200      29
143.3600      -5
143.4000      21
143.4400      25
143.4800      20
143.5200      24
143.5600       9
143.6000      47
143.6400      58
143.6800      27
143.7200      52
143.7600      43
143.8000      14
143.8400      47
143.8800      98
143.9200      88
143.9600      59
144.0000      41
144.0400      31
144.0800      43
144.1200      57
144.1600      58
144.2000      36
144.2400      81
144.2800      78
144.3200      38
144.3600      23
144.4000      47
144.4400      84
144.4800      67
144.5200      37
144.5600      58
144.6000      60
144.6400      68
144.6800      86
144.7200      99
144.7600      55
144.8000      31
144.8400      10
144.8800      12
144.9200      31
144.9600      52
145.0000      70
145.0400      71
145.0800      85
145.1200     126
145.1600     112
145.2000     116
145.2400      96
145.2800      99
145.3200      68
145.3600      32
145.4000      17
145.4400      14
145.4800      56
145.5200      37
145.5600      38
145.6000      58
145.6400      93
145.6800      47
145.7200       2
145.7600      26
145.8000      29
145.8400      51
145.8800      61
145.9200      45
145.9600      71
146.0000      70
146.0400      54
146.0800      39
146.1200       6
146.1600      24
146.2000      33
146.2400      28
146.2800      31
146.3200      12
146.3600      49
146.4000     100
146.4400      90
146.4800      84
146.5200      44
146.5600      16
146.6000      48
146.6400      61
146.6800      30
146.7200      58
146.7600      71
146.8000      37
146.8400      40
146.8800      38
146.9200      84
146.9600      90
147.0000      90
147.0400      82
147.0800      39
147.1200      24
147.1600      26
147.2000      90
147.2400      74
147.2800      53
147.3200      47
147.3600      15
147.4000      53
147.4400      87
147.4800      52
147.5200      82
147.5600      43
147.6000      30
147.6400      52
147.6800      18
147.7200      16
147.7600      29
147.8000      58
147.8400      59
147.8800      31
147.9200      35
147.9600      45
148.0000      69
148.0400      69
148.0800      90
148.1200      90
148.1600      42
148.2000      41
148.2400      61
148.2800      57
148.3200      48
148.3600      74
148.4000      70
148.4400      59
148.4800      54
148.5200      52
148.5600      56
148.6000      39
148.6400      48
148.6800      56
148.7200      92
148.7600      78
148.8000      47
148.8400       4
148.8800      41
148.9200      54
148.9600      38
149.0000      41
149.0400      57
149.0800     123
149.1200      60
149.1600      30
149.2000      54
149.2400      69
149.2800      50
149.3200      54
149.3600      22
149.4000      37
149.4400      54
149.4800      41
149.5200      40
149.5600      34
149.6000      59
149.6400      80
149.6800      77
149.7200      60
149.7600      65
149.8000      24
149.8400      22
149.8800      41
149.9200      49
149.9600      51
150.0000      43
150.0400      78
150.0800     104
150.1200      91
150.1600      67
150.2000      56
150.2400      83
150.2800      94
150.3200      87
150.3600      92
150.4000      63
150.4400      61
150.4800      96
150.5200      65
150.5600      80
150.6000      53
150.6400      98
150.6800     128
150.7200      96
150.7600      59
150.8000      87
150.8400      44
150.8800      46
150.9200      77
150.9600      69
151.0000      80
151.0400      87
151.0800     100
151.1200     127
151.1600     104