File: XRD_Tool/XRD_Tool/bin/Debug/LDA_sample_name_56789_Psi-15_20180622-213809.txt
137.2000     344
137.2200     363
137.2400     275
137.2600     170
137.2800     190
137.3000     257
137.3200     311
137.3400     341
137.3600     279
137.3800     209
137.4000     276
137.4200     370
137.4400     327
137.4600     236
137.4800     177
137.5000     144
137.5200     179
137.5400     244
137.5600     322
137.5800     383
137.6000     329
137.6200     247
137.6400     254
137.6600     286
137.6800     273
137.7000     244
137.7200     230
137.7400     220
137.7600     202
137.7800     189
137.8000     226
137.8200     271
137.8400     259
137.8600     234
137.8800     252
137.9000     278
137.9200     251
137.9400     211
137.9600     213
137.9800     235
138.0000     282
138.0200     322
138.0400     284
138.0600     226
138.0800     228
138.1000     253
138.1200     273
138.1400     286
138.1600     274
138.1800     249
138.2000     209
138.2200     174
138.2400     199
138.2600     240
138.2800     249
138.3000     245
138.3200     238
138.3400     230
138.3600     220
138.3800     217
138.4000     251
138.4200     294
138.4400     314
138.4600     319
138.4800     302
138.5000     277
138.5200     259
138.5400     251
138.5600     281
138.5800     314
138.6000     280
138.6200     238
138.6400     285
138.6600     354
138.6800     361
138.7000     335
138.7200     266
138.7400     190
138.7600     167
138.7800     168
138.8000     181
138.8200     199
138.8400     218
138.8600     248
138.8800     327
138.9000     405
138.9200     386
138.9400     322
138.9600     228
138.9800     139
139.0000     132
139.0200     157
139.0400     180
139.0600     199
139.0800     205
139.1000     213
139.1200     261
139.1400     312
139.1600     300
139.1800     263
139.2000     231
139.2200     201
139.2400     172
139.2600     162
139.2800     237
139.3000     327
139.3200     315
139.3400     273
139.3600     276
139.3800     297
139.4000     313
139.4200     324
139.4400     320
139.4600     311
139.4800     304
139.5000     292
139.5200     251
139.5400     209
139.5600     214
139.5800     240
139.6000     278
139.6200     304
139.6400     253
139.6600     185
139.6800     187
139.7000     218
139.7200     251
139.7400     284
139.7600     317
139.7800     340
139.8000     321
139.8200     285
139.8400     246
139.8600     211
139.8800     199
139.9000     199
139.9200     206
139.9400     216
139.9600     231
139.9800     252
140.0000     300
140.0200     341
140.0400     298
140.0600     241
140.0800     274
140.1000     333
140.1200     337
140.1400     316
140.1600     277
140.1800     233
140.2000     199
140.2200     175
140.2400     186
140.2600     211
140.2800     243
140.3000     279
140.3200     330
140.3400     380
140.3600     398
140.3800     396
140.4000     351
140.4200     300
140.4400     307
140.4600     322
140.4800     260
140.5000     188
140.5200     215
140.5400     281
140.5600     347
140.5800     398
140.6000     375
140.6200     327
140.6400     294
140.6600     276
140.6800     298
140.7000     323
140.7200     283
140.7400     225
140.7600     204
140.7800     197
140.8000     185
140.8200     180
140.8400     225
140.8600     280
140.8800     290
140.9000     275
140.9200     228
140.9400     183
140.9600     212
140.9800     261
141.0000     268
141.0200     258
141.0400     245
141.0600     240
141.0800     280
141.1000     320
141.1200     273
141.1400     215
141.1600     279
141.1800     361
141.2000     291
141.2200     185
141.2400     199
141.2600     248
141.2800     232
141.3000     202
141.3200     234
141.3400     279
141.3600     271
141.3800     250
141.4000     279
141.4200     319
141.4400     319
141.4600     307
141.4800     317
141.5000     332
141.5200     332
141.5400     332
141.5600     365
141.5800     394
141.6000     338
141.6200     263
141.6400     265
141.6600     294
141.6800     306
141.7000     306
141.7200     273
141.7400     234
141.7600     231
141.7800     250
141.8000     299
141.8200     351
141.8400     350
141.8600     323
141.8800     271
141.9000     224
141.9200     253
141.9400     301
141.9600     284
141.9800     259
142.0000     316
142.0200     388
142.0400     371
142.0600     325
142.0800     304
142.1000     292
142.1200     272
142.1400     252
142.1600     255
142.1800     263
142.2000     250
142.2200     235
142.2400     260
142.2600     294
142.2800     300
142.3000     290
142.3200     263
142.3400     231
142.3600     206
142.3800     186
142.4000     179
142.4200     185
142.4400     229
142.4600     286
142.4800     325
142.5000     344
142.5200     301
142.5400     249
142.5600     276
142.5800     321
142.6000     306
142.6200     271
142.6400     261
142.6600     268
142.6800     310
142.7000     354
142.7200     338
142.7400     302
142.7600     289
142.7800     284
142.8000     269
142.8200     267
142.8400     347
142.8600     436
142.8800     410
142.9000     345
142.9200     318
142.9400     305
142.9600     287
142.9800     265
143.0000     228
143.0200     193
143.0400     191
143.0600     209
143.0800     252
143.1000     298
143.1200     301
143.1400     301
143.1600     371
143.1800     450
143.2000     434
143.2200     386
143.2400     371
143.2600     365
143.2800     339
143.3000     312
143.3200     322
143.3400     346
143.3600     370
143.3800     382
143.4000     332
143.4200     273
143.4400     289
143.4600     331
143.4800     353
143.5000     366
143.5200     374
143.5400     373
143.5600     339
143.5800     304
143.6000     332
143.6200     378
143.6400     386
143.6600     384
143.6800     414
143.7000     434
143.7200     344
143.7400     227
143.7600     198
143.7800     210
143.8000     250
143.8200     295
143.8400     300
143.8600     290
143.8800     282
143.9000     281
143.9200     318
143.9400     365
143.9600     384
143.9800     389
144.0000     379
144.0200     358
144.0400     314
144.0600     274
144.0800     307
144.1000     361
144.1200     372
144.1400     360
144.1600     318
144.1800     270
144.2000     257
144.2200     262
144.2400     292
144.2600     325
144.2800     321
144.3000     304
144.3200     294
144.3400     288
144.3600     290
144.3800     298
144.4000     316
144.4200     341
144.4400     381
144.4600     417
144.4800     401
144.5000     375
144.5200     398
144.5400     433
144.5600     436
144.5800     424
144.6000     399
144.6200     374
144.6400     374
144.6600     375
144.6800     332
144.7000     281
144.7200     274
144.7400     289
144.7600     330
144.7800     370
144.8000     349
144.8200     315
144.8400     341
144.8600     373
144.8800     318
144.9000     244
144.9200     250
144.9400     280
144.9600     272
144.9800     254
145.0000     264
145.0200     276
145.0400     240
145.0600     203
145.0800     264
145.1000     350
145.1200     365
145.1400     361
145.1600     408
145.1800     451
145.2000     368
145.2200     252
145.2400     226
145.2600     239
145.2800     268
145.3000     299
145.3200     304
145.3400     301
145.3600     313
145.3800     317
145.4000     251
145.4200     178
145.4400     215
145.4600     280
145.4800     273
145.5000     245
145.5200     257
145.5400     289
145.5600     340
145.5800     389
145.6000     394
145.6200     376
145.6400     323
145.6600     268
145.6800     268
145.7000     282
145.7200     256
145.7400     226
145.7600     258
145.7800     306
145.8000     317
145.8200     313
145.8400     308
145.8600     306
145.8800     324
145.9000     344
145.9200     335
145.9400     319
145.9600     318
145.9800     318
146.0000     288
146.0200     254
146.0400     258
146.0600     291
146.0800     384
146.1000     474
146.1200     426
146.1400     334
146.1600     302
146.1800     309
146.2000     393
146.2200     473
146.2400     384
146.2600     258
146.2800     277
146.3000     337
146.3200     309
146.3400     260
146.3600     286
146.3800     333
146.4000     335
146.4200     328
146.4400     366
146.4600     409
146.4800     385
146.5000     337
146.5200     301
146.5400     285
146.5600     347
146.5800     420
146.6000     386
146.6200     318
146.6400     290
146.6600     289
146.6800     340
146.7000     403
146.7200     421
146.7400     416
146.7600     384
146.7800     348
146.8000     342
146.8200     351
146.8400     377
146.8600     400
146.8800     381
146.9000     361
146.9200     420
146.9400     494
146.9600     488
146.9800     454
147.0000     440
147.0200     429
147.0400     394
147.0600     360
147.0800     373
147.1000     394
147.1200     360
147.1400     313
147.1600     313
147.1800     333
147.2000     366
147.2200     395
147.2400     377
147.2600     350
147.2800     365
147.3000     391
147.3200     389
147.3400     376
147.3600     373
147.3800     376
147.4000     397
147.4200     420
147.4400     418
147.4600     407
147.4800     398
147.5000     388
147.5200     366
147.5400     351
147.5600     388
147.5800     436
147.6000     439
147.6200     414
147.6400     344
147.6600     271
147.6800     276
147.7000     311
147.7200     338
147.7400     356
147.7600     347
147.7800     336
147.8000     369
147.8200     421
147.8400     483
147.8600     533
147.8800     503
147.9000     455
147.9200     480
147.9400     519
147.9600     483
147.9800     421
148.0000     381
148.0200     357
148.0400     371
148.0600     405
148.0800     461
148.1000     508
148.1200     472
148.1400     414
148.1600     419
148.1800     440
148.2000     416
148.2200     384
148.2400     400
148.2600     423
148.2800     380
148.3000     326
148.3200     355
148.3400     413
148.3600     448
148.3800     459
148.4000     395
148.4200     323
148.4400     361
148.4600     425
148.4800     404
148.5000     357
148.5200     353
148.5400     374
148.5600     427
148.5800     476
148.6000     440
148.6200     376
148.6400     343
148.6600     333
148.6800     368
148.7000     418
148.7200     450
148.7400     471
148.7600     475
148.7800     478
148.8000     504
148.8200     526
148.8400     477
148.8600     420
148.8800     473
148.9000     553
148.9200     551
148.9400     523
148.9600     523
148.9800     528
149.0000     498
149.0200     458
149.0400     433
149.0600     416
149.0800     402
149.1000     392
149.1200     389
149.1400     396
149.1600     441
149.1800     490
149.2000     483
149.2200     461
149.2400     480
149.2600     504
149.2800     467
149.3000     416
149.3200     423
149.3400     448
149.3600     446
149.3800     447
149.4000     510
149.4200     573
149.4400     511
149.4600     414
149.4800     394
149.5000     415
149.5200     491
149.5400     573
149.5600     578
149.5800     546
149.6000     481
149.6200     421
149.6400     452
149.6600     516
149.6800     555
149.7000     575
149.7200     542
149.7400     501
149.7600     530
149.7800     570
149.8000     528
149.8200     482
149.8400     578
149.8600     708
149.8800     731
149.9000     705
149.9200     648
149.9400     580
149.9600     525
149.9800     485
150.0000     492
150.0200     524
150.0400     586
150.0600     642
150.0800     611
150.1000     562
150.1200     596
150.1400     651
150.1600     641
150.1800     607
150.2000     578
150.2200     556
150.2400     554
150.2600     561
150.2800     573
150.3000     587
150.3200     601
150.3400     605
150.3600     561
150.3800     517
150.4000     575
150.4200     663
150.4400     706
150.4600     725
150.4800     719
150.5000     707
150.5200     717
150.5400     732
150.5600     733
150.5800     733
150.6000     750
150.6200     767
150.6400     752
150.6600     727
150.6800     714
150.7000     709
150.7200     722
150.7400     740
150.7600     745
150.7800     754
150.8000     808
150.8200     874
150.8400     908
150.8600     917
150.8800     863
150.9000     783
150.9200     705
150.9400     643
150.9600     662
150.9800     709
151.0000     726
151.0200     742
151.0400     808
151.0600     888
151.0800     936
151.1000     960
151.1200     921
151.1400     871
151.1600     894
151.1800     951
151.2000    1028
151.2200    1086
151.2400    1001
151.2600     885
151.2800     902
151.3000     964
151.3200     984
151.3400     981
151.3600     943
151.3800     915
151.4000    1002
151.4200    1123
151.4400    1177
151.4600    1197
151.4800    1176
151.5000    1149
151.5200    1178
151.5400    1210
151.5600    1139
151.5800    1049
151.6000    1071
151.6200    1124
151.6400    1113
151.6600    1096
151.6800    1169
151.7000    1269
151.7200    1316
151.7400    1329
151.7600    1280
151.7800    1231
151.8000    1305
151.8200    1401
151.8400    1356
151.8600    1280
151.8800    1334
151.9000    1445
151.9200    1586
151.9400    1694
151.9600    1585
151.9800    1426
152.0000    1447
152.0200    1544
152.0400    1653
152.0600    1748
152.0800    1748
152.1000    1718
152.1200    1731
152.1400    1769
152.1600    1847
152.1800    1926
152.2000    1927
152.2200    1895
152.2400    1854
152.2600    1817
152.2800    1812
152.3000    1815
152.3200    1796
152.3400    1786
152.3600    1866
152.3800    1972
152.4000    2028
152.4200    2060
152.4400    2069
152.4600    2064
152.4800    2032
152.5000    2002
152.5200    2029
152.5400    2086
152.5600    2181
152.5800    2266
152.6000    2228
152.6200    2158
152.6400    2178
152.6600    2218
152.6800    2176
152.7000    2121
152.7200    2161
152.7400    2251
152.7600    2398
152.7800    2532
152.8000    2489
152.8200    2380
152.8400    2294
152.8600    2250
152.8800    2366
152.9000    2533
152.9200    2635
152.9400    2690
152.9600    2640
152.9800    2556
153.0000    2507
153.0200    2482
153.0400    2500
153.0600    2538
153.0800    2581
153.1000    2622
153.1200    2638
153.1400    2634
153.1600    2578
153.1800    2521
153.2000    2554
153.2200    2599
153.2400    2517
153.2600    2427
153.2800    2542
153.3000    2706
153.3200    2697
153.3400    2641
153.3600    2696
153.3800    2775
153.4000    2744
153.4200    2677
153.4400    2643
153.4600    2636
153.4800    2689
153.5000    2741
153.5200    2660
153.5400    2553
153.5600    2584
153.5800    2655
153.6000    2648
153.6200    2624
153.6400    2670
153.6600    2733
153.6800    2746
153.7000    2733
153.7200    2697
153.7400    2656
153.7600    2640
153.7800    2625
153.8000    2565
153.8200    2494
153.8400    2459
153.8600    2446
153.8800    2465
153.9000    2489
153.9200    2476
153.9400    2446
153.9600    2403
153.9800    2370
154.0000    2415
154.0200    2471
154.0400    2426
154.0600    2328
154.0800    2175
154.1000    2054
154.1200    2208
154.1400    2424
154.1600    2398
154.1800    2288
154.2000    2236
154.2200    2209
154.2400    2187
154.2600    2188
154.2800    2293
154.3000    2403
154.3200    2338
154.3400    2202
154.3600    2066
154.3800    1966
154.4000    2046
154.4200    2168
154.4400    2140
154.4600    2063
154.4800    2043
154.5000    2035
154.5200    1978
154.5400    1911
154.5600    1884
154.5800    1865
154.6000    1801
154.6200    1732
154.6400    1725
154.6600    1744
154.6800    1769
154.7000    1798
154.7200    1831
154.7400    1843
154.7600    1745
154.7800    1618
154.8000    1566
154.8200    1541
154.8400    1501
154.8600    1474
154.8800    1543
154.9000    1631
154.9200    1614
154.9400    1570
154.9600    1594
154.9800    1624
155.0000    1541
155.0200    1435
155.0400    1441
155.0600    1473
155.0800    1420
155.1000    1348
155.1200    1359
155.1400    1393
155.1600    1376
155.1800    1353
155.2000    1408
155.2200    1463
155.2400    1365
155.2600    1241
155.2800    1297
155.3000    1395
155.3200    1345
155.3400    1262
155.3600    1315
155.3800    1398
155.4000    1356
155.4200    1270
155.4400    1214
155.4600    1169
155.4800    1114
155.5000    1074
155.5200    1124
155.5400    1179
155.5600    1077
155.5800     949
155.6000    1000
155.6200    1110
155.6400    1165
155.6600    1174
155.6800    1066
155.7000     943
155.7200     972
155.7400    1047
155.7600    1047
155.7800    1017
155.8000     987
155.8200     955
155.8400     913
155.8600     871
155.8800     849
155.9000     835
155.9200     826
155.9400     813
155.9600     773
155.9800     735
156.0000     757
156.0200     790
156.0400     758
156.0600     714
156.0800     737
156.1000     782
156.1200     807
156.1400     811
156.1600     755
156.1800     690
156.2000     703
156.2200     742
156.2400     755
156.2600     763
156.2800     802
156.3000     848
156.3200     864
156.3400     852
156.3600     760
156.3800     650
156.4000     609
156.4200     601
156.4400     628
156.4600     665
156.4800     689
156.5000     703
156.5200     702
156.5400     688
156.5600     647
156.5800     614
156.6000     676
156.6200     752
156.6400     705
156.6600     623
156.6800     614
156.7000     643
156.7200     712
156.7400     780
156.7600     760
156.7800     698
156.8000     608
156.8200     534
156.8400     605
156.8600     715
156.8800     735
156.9000     711
156.9200     650
156.9400     594
156.9600     637
156.9800     697
157.0000     648
157.0200     574
157.0400     585
157.0600     627
157.0800     647
157.1000     656
157.1200     650
157.1400     635
157.1600     602
157.1800     564
157.2000     538
157.2200     523
157.2400     548
157.2600     586
157.2800     616
157.3000     626
157.3200     556
157.3400     473
157.3600     485
157.3800     526
157.4000     527
157.4200     511
157.4400     495
157.4600     484
157.4800     498
157.5000     522
157.5200     544
157.5400     561
157.5600     555
157.5800     535
157.6000     497
157.6200     461
157.6400     480
157.6600     511
157.6800     497
157.7000     480
157.7200     538
157.7400     609
157.7600     598
157.7800     549
157.8000     474
157.8200     399
157.8400     379
157.8600     380
157.8800     376
157.9000     378
157.9200     420
157.9400     463
157.9600     434
157.9800     385
158.0000     381
158.0200     399
158.0400     439
158.0600     484
158.0800     516
158.1000     535
158.1200     520
158.1400     497
158.1600     499
158.1800     511
158.2000     523
158.2200     533
158.2400     532
158.2600     512
158.2800     423
158.3000     332
158.3200     363
158.3400     436
158.3600     474
158.3800     491
158.4000     471
158.4200     437
158.4400     400
158.4600     383
158.4800     474
158.5000     580
158.5200     543
158.5400     466
158.5600     474
158.5800     505
158.6000     484
158.6200     453
158.6400     475
158.6600     514
158.6800     528
158.7000     527
158.7200     498
158.7400     467
158.7600     484
158.7800     504
158.8000     439
158.8200     350
158.8400     303
158.8600     288
158.8800     349
158.9000     428
158.9200     439
158.9400     428
158.9600     442
158.9800     458
159.0000     436
159.0200     405
159.0400     410
159.0600     420
159.0800     375
159.1000     322
159.1200     332
159.1400     366
159.1600     389
159.1800     406
159.2000     418
159.2200     422
159.2400     401
159.2600     375
159.2800     377
159.3000     398
159.3200     454
159.3400     501
159.3600     433
159.3800     340
159.4000     350
159.4200     394
159.4400     393
159.4600     378
159.4800     380
159.5000     384
159.5200     370
159.5400     349
159.5600     336
159.5800     337
159.6000     393
159.6200     456
159.6400     446
159.6600     404
159.6800     350
159.7000     294
159.7200     250
159.7400     223
159.7600     263
159.7800     328
159.8000     393
159.8200     436
159.8400     374
159.8600     297
159.8800     358
159.9000     444
159.9200     375
159.9400     262
159.9600     236
159.9800     249
160.0000     285
160.0200     329
160.0400     361
160.0600     378
160.0800     335
160.1000     275
160.1200     243
160.1400     237
160.1600     298
160.1800     373
160.2000     385
160.2200     369
160.2400     348
160.2600     320
160.2800     275
160.3000     237
160.3200     268
160.3400     314
160.3600     300
160.3800     271
160.4000     292
160.4200     330
160.4400     360
160.4600     378
160.4800     359
160.5000     331
160.5200     333
160.5400     339
160.5600     303
160.5800     262
160.6000     276
160.6200     311
160.6400     341
160.6600     361
160.6800     341
160.7000     310
160.7200     303
160.7400     299
160.7600     268
160.7800     240
160.8000     284
160.8200     346
160.8400     361
160.8600     350
160.8800     304
160.9000     255
160.9200     256
160.9400     280
160.9600     314
160.9800     347
161.0000     355
161.0200     343
161.0400     281
161.0600     221
161.0800     273
161.1000     351
161.1200     341
161.1400     302
161.1600     301
161.1800     308