File: XRD_Tool/XRD_Tool/bin/Debug/LDA_sample_name_56789_Psi-0_20180623-123948.txt
138.0000     157
138.0200     117
138.0400     164
138.0600     230
138.0800     221
138.1000     188
138.1200     188
138.1400     201
138.1600     209
138.1800     208
138.2000     172
138.2200     136
138.2400     167
138.2600     215
138.2800     214
138.3000     200
138.3200     211
138.3400     231
138.3600     239
138.3800     236
138.4000     195
138.4200     151
138.4400     167
138.4600     202
138.4800     215
138.5000     214
138.5200     188
138.5400     160
138.5600     167
138.5800     195
138.6000     250
138.6200     304
138.6400     301
138.6600     269
138.6800     205
138.7000     152
138.7200     213
138.7400     296
138.7600     269
138.7800     208
138.8000     202
138.8200     221
138.8400     257
138.8600     282
138.8800     222
138.9000     144
138.9200     146
138.9400     176
138.9600     189
138.9800     193
139.0000     184
139.0200     173
139.0400     182
139.0600     189
139.0800     154
139.1000     111
139.1200     112
139.1400     128
139.1600     137
139.1800     149
139.2000     193
139.2200     236
139.2400     216
139.2600     174
139.2800     155
139.3000     153
139.3200     188
139.3400     223
139.3600     184
139.3800     138
139.4000     202
139.4200     291
139.4400     285
139.4600     245
139.4800     222
139.5000     214
139.5200     248
139.5400     280
139.5600     222
139.5800     152
139.6000     202
139.6200     278
139.6400     244
139.6600     179
139.6800     184
139.7000     215
139.7200     243
139.7400     258
139.7600     219
139.7800     170
139.8000     173
139.8200     196
139.8400     217
139.8600     238
139.8800     264
139.9000     284
139.9200     263
139.9400     227
139.9600     206
139.9800     194
140.0000     202
140.0200     211
140.0400     183
140.0600     145
140.0800     129
140.1000     124
140.1200     137
140.1400     161
140.1600     200
140.1800     238
140.2000     238
140.2200     226
140.2400     237
140.2600     244
140.2800     185
140.3000     123
140.3200     184
140.3400     271
140.3600     241
140.3800     172
140.4000     135
140.4200     117
140.4400     127
140.4600     150
140.4800     175
140.5000     198
140.5200     211
140.5400     220
140.5600     232
140.5800     239
140.6000     209
140.6200     180
140.6400     221
140.6600     282
140.6800     296
140.7000     284
140.7200     232
140.7400     181
140.7600     210
140.7800     263
140.8000     268
140.8200     257
140.8400     261
140.8600     267
140.8800     254
140.9000     236
140.9200     223
140.9400     208
140.9600     168
140.9800     127
141.0000     128
141.0200     154
141.0400     220
141.0600     280
141.0800     233
141.1000     157
141.1200     153
141.1400     176
141.1600     192
141.1800     199
141.2000     168
141.2200     129
141.2400     128
141.2600     144
141.2800     167
141.3000     186
141.3200     175
141.3400     155
141.3600     155
141.3800     163
141.4000     169
141.4200     186
141.4400     255
141.4600     320
141.4800     263
141.5000     173
141.5200     165
141.5400     189
141.5600     213
141.5800     233
141.6000     233
141.6200     223
141.6400     203
141.6600     181
141.6800     167
141.7000     161
141.7200     173
141.7400     202
141.7600     275
141.7800     331
141.8000     222
141.8200      90
141.8400     176
141.8600     321
141.8800     319
141.9000     260
141.9200     203
141.9400     164
141.9600     210
141.9800     273
142.0000     254
142.0200     209
142.0400     199
142.0600     208
142.0800     239
142.1000     281
142.1200     336
142.1400     375
142.1600     306
142.1800     211
142.2000     199
142.2200     220
142.2400     238
142.2600     243
142.2800     191
142.3000     135
142.3200     169
142.3400     233
142.3600     264
142.3800     275
142.4000     254
142.4200     231
142.4400     263
142.4600     313
142.4800     341
142.5000     356
142.5200     341
142.5400     320
142.5600     324
142.5800     327
142.6000     273
142.6200     212
142.6400     225
142.6600     257
142.6800     239
142.7000     201
142.7200     166
142.7400     143
142.7600     173
142.7800     217
142.8000     216
142.8200     199
142.8400     189
142.8600     188
142.8800     224
142.9000     272
142.9200     310
142.9400     329
142.9600     273
142.9800     203
143.0000     218
143.0200     263
143.0400     295
143.0600     317
143.0800     322
143.1000     317
143.1200     294
143.1400     263
143.1600     227
143.1800     194
143.2000     187
143.2200     196
143.2400     230
143.2600     270
143.2800     289
143.3000     291
143.3200     254
143.3400     213
143.3600     224
143.3800     250
143.4000     249
143.4200     236
143.4400     213
143.4600     189
143.4800     177
143.5000     177
143.5200     220
143.5400     271
143.5600     276
143.5800     265
143.6000     270
143.6200     277
143.6400     256
143.6600     231
143.6800     243
143.7000     270
143.7200     303
143.7400     335
143.7600     342
143.7800     330
143.8000     265
143.8200     192
143.8400     185
143.8600     200
143.8800     187
143.9000     176
143.9200     232
143.9400     300
143.9600     301
143.9800     273
144.0000     235
144.0200     206
144.0400     244
144.0600     293
144.0800     265
144.1000     219
144.1200     235
144.1400     263
144.1600     231
144.1800     191
144.2000     231
144.2200     287
144.2400     261
144.2600     217
144.2800     240
144.3000     281
144.3200     278
144.3400     258
144.3600     233
144.3800     216
144.4000     242
144.4200     277
144.4400     266
144.4600     244
144.4800     262
144.5000     292
144.5200     302
144.5400     302
144.5600     292
144.5800     281
144.6000     285
144.6200     287
144.6400     249
144.6600     199
144.6800     172
144.7000     162
144.7200     192
144.7400     247
144.7600     344
144.7800     428
144.8000     363
144.8200     257
144.8400     236
144.8600     258
144.8800     320
144.9000     383
144.9200     369
144.9400     330
144.9600     311
144.9800     300
145.0000     284
145.0200     266
145.0400     248
145.0600     235
145.0800     247
145.1000     265
145.1200     261
145.1400     253
145.1600     262
145.1800     277
145.2000     285
145.2200     293
145.2400     311
145.2600     323
145.2800     287
145.3000     236
145.3200     210
145.3400     199
145.3600     216
145.3800     241
145.4000     251
145.4200     250
145.4400     219
145.4600     191
145.4800     235
145.5000     302
145.5200     344
145.5400     359
145.5600     291
145.5800     202
145.6000     181
145.6200     191
145.6400     218
145.6600     241
145.6800     214
145.7000     175
145.7200     181
145.7400     211
145.7600     273
145.7800     331
145.8000     309
145.8200     264
145.8400     269
145.8600     289
145.8800     287
145.9000     283
145.9200     306
145.9400     325
145.9600     270
145.9800     202
146.0000     209
146.0200     235
146.0400     198
146.0600     151
146.0800     180
146.1000     236
146.1200     272
146.1400     278
146.1600     169
146.1800      52
146.2000     122
146.2200     245
146.2400     265
146.2600     247
146.2800     252
146.3000     260
146.3200     238
146.3400     205
146.3600     177
146.3800     161
146.4000     192
146.4200     242
146.4400     295
146.4600     339
146.4800     330
146.5000     300
146.5200     271
146.5400     255
146.5600     294
146.5800     348
146.6000     362
146.6200     352
146.6400     304
146.6600     251
146.6800     251
146.7000     272
146.7200     288
146.7400     300
146.7600     304
146.7800     317
146.8000     393
146.8200     467
146.8400     399
146.8600     291
146.8800     262
146.9000     270
146.9200     313
146.9400     360
146.9600     362
146.9800     336
147.0000     260
147.0200     188
147.0400     239
147.0600     321
147.0800     312
147.1000     275
147.1200     284
147.1400     317
147.1600     372
147.1800     416
147.2000     363
147.2200     287
147.2400     286
147.2600     305
147.2800     271
147.3000     231
147.3200     271
147.3400     326
147.3600     296
147.3800     242
147.4000     238
147.4200     263
147.4400     331
147.4600     399
147.4800     374
147.5000     322
147.5200     320
147.5400     333
147.5600     326
147.5800     319
147.6000     357
147.6200     394
147.6400     336
147.6600     255
147.6800     251
147.7000     276
147.7200     296
147.7400     310
147.7600     307
147.7800     303
147.8000     331
147.8200     361
147.8400     339
147.8600     304
147.8800     306
147.9000     323
147.9200     345
147.9400     368
147.9600     386
147.9800     399
148.0000     400
148.0200     399
148.0400     413
148.0600     425
148.0800     397
148.1000     356
148.1200     327
148.1400     311
148.1600     335
148.1800     364
148.2000     341
148.2200     303
148.2400     295
148.2600     290
148.2800     240
148.3000     197
148.3200     278
148.3400     387
148.3600     396
148.3800     369
148.4000     367
148.4200     376
148.4400     393
148.4600     413
148.4800     430
148.5000     441
148.5200     427
148.5400     403
148.5600     379
148.5800     354
148.6000     326
148.6200     298
148.6400     280
148.6600     273
148.6800     301
148.7000     343
148.7200     385
148.7400     413
148.7600     374
148.7800     321
148.8000     335
148.8200     369
148.8400     375
148.8600     372
148.8800     387
148.9000     415
148.9200     475
148.9400     527
148.9600     479
148.9800     402
149.0000     383
149.0200     389
149.0400     402
149.0600     420
149.0800     446
149.1000     469
149.1200     459
149.1400     437
149.1600     428
149.1800     427
149.2000     440
149.2200     464
149.2400     523
149.2600     567
149.2800     474
149.3000     351
149.3200     348
149.3400     387
149.3600     389
149.3800     385
149.4000     421
149.4200     460
149.4400     431
149.4600     388
149.4800     412
149.5000     451
149.5200     440
149.5400     421
149.5600     465
149.5800     521
149.6000     504
149.6200     463
149.6400     448
149.6600     449
149.6800     472
149.7000     492
149.7200     452
149.7400     402
149.7600     424
149.7800     457
149.8000     405
149.8200     331
149.8400     322
149.8600     354
149.8800     469
149.9000     586
149.9200     545
149.9400     467
149.9600     517
149.9800     590
150.0000     518
150.0200     411
150.0400     419
150.0600     469
150.0800     499
150.1000     515
150.1200     499
150.1400     474
150.1600     459
150.1800     449
150.2000     441
150.2200     439
150.2400     470
150.2600     512
150.2800     539
150.3000     552
150.3200     517
150.3400     469
150.3600     456
150.3800     451
150.4000     421
150.4200     396
150.4400     444
150.4600     509
150.4800     506
150.5000     479
150.5200     468
150.5400     464
150.5600     459
150.5800     457
150.6000     476
150.6200     489
150.6400     422
150.6600     355
150.6800     440
150.7000     557
150.7200     532
150.7400     467
150.7600     484
150.7800     522
150.8000     501
150.8200     473
150.8400     525
150.8600     593
150.8800     578
150.9000     540
150.9200     550
150.9400     575
150.9600     577
150.9800     566
151.0000     542
151.0200     521
151.0400     545
151.0600     576
151.0800     557
151.1000     538
151.1200     627
151.1400     736
151.1600     727
151.1800     680
151.2000     676
151.2200     686
151.2400     678
151.2600     653
151.2800     586
151.3000     533
151.3200     634
151.3400     766
151.3600     749
151.3800     686
151.4000     687
151.4200     704
151.4400     681
151.4600     645
151.4800     627
151.5000     623
151.5200     646
151.5400     676
151.5600     687
151.5800     699
151.6000     748
151.6200     806
151.6400     832
151.6600     849
151.6800     879
151.7000     898
151.7200     832
151.7400     746
151.7600     725
151.7800     746
151.8000     840
151.8200     938
151.8400     906
151.8600     831
151.8800     800
151.9000     795
151.9200     835
151.9400     888
151.9600     921
151.9800     944
152.0000     962
152.0200     983
152.0400    1032
152.0600    1077
152.0800    1044
152.1000     992
152.1200     998
152.1400    1013
152.1600     955
152.1800     886
152.2000     915
152.2200     976
152.2400    1001
152.2600    1004
152.2800     975
152.3000     948
152.3200     994
152.3400    1062
152.3600    1089
152.3800    1103
152.4000    1140
152.4200    1184
152.4400    1216
152.4600    1250
152.4800    1309
152.5000    1359
152.5200    1311
152.5400    1237
152.5600    1235
152.5800    1270
152.6000    1351
152.6200    1431
152.6400    1410
152.6600    1361
152.6800    1378
152.7000    1416
152.7200    1424
152.7400    1431
152.7600    1490
152.7800    1567
152.8000    1632
152.8200    1680
152.8400    1663
152.8600    1621
152.8800    1581
152.9000    1559
152.9200    1627
152.9400    1721
152.9600    1765
152.9800    1795
153.0000    1853
153.0200    1898
153.0400    1815
153.0600    1706
153.0800    1727
153.1000    1803
153.1200    1899
153.1400    1988
153.1600    2005
153.1800    1997
153.2000    2008
153.2200    2019
153.2400    1996
153.2600    1963
153.2800    1942
153.3000    1938
153.3200    1997
153.3400    2093
153.3600    2249
153.3800    2386
153.4000    2305
153.4200    2170
153.4400    2202
153.4600    2286
153.4800    2303
153.5000    2307
153.5200    2383
153.5400    2491
153.5600    2622
153.5800    2718
153.6000    2589
153.6200    2397
153.6400    2332
153.6600    2338
153.6800    2444
153.7000    2564
153.7200    2559
153.7400    2512
153.7600    2510
153.7800    2534
153.8000    2600
153.8200    2670
153.8400    2683
153.8600    2666
153.8800    2611
153.9000    2574
153.9200    2703
153.9400    2854
153.9600    2777
153.9800    2636
154.0000    2632
154.0200    2668
154.0400    2635
154.0600    2586
154.0800    2592
154.1000    2614
154.1200    2603
154.1400    2584
154.1600    2593
154.1800    2620
154.2000    2682
154.2200    2744
154.2400    2733
154.2600    2691
154.2800    2642
154.3000    2604
154.3200    2633
154.3400    2673
154.3600    2635
154.3800    2570
154.4000    2530
154.4200    2497
154.4400    2454
154.4600    2428
154.4800    2510
154.5000    2630
154.5200    2718
154.5400    2759
154.5600    2625
154.5800    2443
154.6000    2368
154.6200    2337
154.6400    2311
154.6600    2294
154.6800    2315
154.7000    2329
154.7200    2230
154.7400    2112
154.7600    2122
154.7800    2183
154.8000    2239
154.8200    2269
154.8400    2176
154.8600    2060
154.8800    2079
154.9000    2160
154.9200    2288
154.9400    2396
154.9600    2315
154.9800    2187
155.0000    2196
155.0200    2241
155.0400    2189
155.0600    2106
155.0800    2058
155.1000    2029
155.1200    2027
155.1400    2029
155.1600    2001
155.1800    1957
155.2000    1893
155.2200    1823
155.2400    1763
155.2600    1720
155.2800    1745
155.3000    1787
155.3200    1779
155.3400    1758
155.3600    1767
155.3800    1773
155.4000    1701
155.4200    1611
155.4400    1589
155.4600    1598
155.4800    1619
155.5000    1633
155.5200    1590
155.5400    1540
155.5600    1567
155.5800    1611
155.6000    1590
155.6200    1537
155.6400    1459
155.6600    1402
155.6800    1503
155.7000    1628
155.7200    1558
155.7400    1428
155.7600    1388
155.7800    1394
155.8000    1449
155.8200    1496
155.8400    1413
155.8600    1285
155.8800    1199
155.9000    1144
155.9200    1169
155.9400    1211
155.9600    1183
155.9800    1141
156.0000    1167
156.0200    1208
156.0400    1182
156.0600    1141
156.0800    1152
156.1000    1166
156.1200    1092
156.1400    1003
156.1600    1019
156.1800    1070
156.2000    1091
156.2200    1092
156.2400    1058
156.2600    1024
156.2800    1062
156.3000    1110
156.3200    1073
156.3400    1011
156.3600    1001
156.3800    1003
156.4000     968
156.4200     918
156.4400     865
156.4600     835
156.4800     926
156.5000    1022
156.5200     898
156.5400     733
156.5600     802
156.5800     940
156.6000     959
156.6200     943
156.6400     982
156.6600    1021
156.6800     942
156.7000     832
156.7200     807
156.7400     812
156.7600     805
156.7800     794
156.8000     783
156.8200     774
156.8400     770
156.8600     763
156.8800     729
156.9000     689
156.9200     664
156.9400     648
156.9600     642
156.9800     653
157.0000     726
157.0200     808
157.0400     810
157.0600     773
157.0800     706
157.1000     636
157.1200     616
157.1400     616
157.1600     614
157.1800     618
157.2000     649
157.2200     677
157.2400     635
157.2600     580
157.2800     601
157.3000     645
157.3200     646
157.3400     616
157.3600     516
157.3800     413
157.4000     433
157.4200     496
157.4400     524
157.4600     535
157.4800     531
157.5000     526
157.5200     548
157.5400     567
157.5600     524
157.5800     474
157.6000     509
157.6200     567
157.6400     563
157.6600     548
157.6800     593
157.7000     649
157.7200     632
157.7400     587
157.7600     550
157.7800     524
157.8000     538
157.8200     567
157.8400     588
157.8600     597
157.8800     566
157.9000     524
157.9200     514
157.9400     519
157.9600     542
157.9800     572
158.0000     600
158.0200     614
158.0400     553
158.0600     482
158.0800     508
158.1000     558
158.1200     538
158.1400     497
158.1600     493
158.1800     496
158.2000     469
158.2200     440
158.2400     464
158.2600     502
158.2800     500
158.3000     474
158.3200     405
158.3400     339
158.3600     373
158.3800     429
158.4000     395
158.4200     337
158.4400     344
158.4600     376
158.4800     411
158.5000     446
158.5200     471
158.5400     492
158.5600     505
158.5800     511
158.6000     500
158.6200     485
158.6400     487
158.6600     493
158.6800     492
158.7000     481
158.7200     434
158.7400     379
158.7600     364
158.7800     365
158.8000     374
158.8200     385
158.8400     386
158.8600     383
158.8800     372
158.9000     357
158.9200     340
158.9400     323
158.9600     308
158.9800     298
159.0000     313
159.0200     330
159.0400     315
159.0600     295
159.0800     310
159.1000     334
159.1200     330
159.1400     329
159.1600     403
159.1800     486
159.2000     464
159.2200     415
159.2400     443
159.2600     483
159.2800     436
159.3000     362
159.3200     326
159.3400     316
159.3600     355
159.3800     405
159.4000     415
159.4200     406
159.4400     385
159.4600     356
159.4800     312
159.5000     276
159.5200     307
159.5400     358
159.5600     375
159.5800     382
159.6000     399
159.6200     415
159.6400     401
159.6600     369
159.6800     309
159.7000     253
159.7200     279
159.7400     338
159.7600     405
159.7800     452
159.8000     386
159.8200     291
159.8400     279
159.8600     295
159.8800     279
159.9000     256
159.9200     257
159.9400     269
159.9600     291
159.9800     314
160.0000     327
160.0200     333
160.0400     331
160.0600     337
160.0800     403
160.1000     468
160.1200     413
160.1400     322
160.1600     299
160.1800     311
160.2000     358
160.2200     403
160.2400     361
160.2600     298
160.2800     295
160.3000     313
160.3200     308
160.3400     295
160.3600     288
160.3800     299
160.4000     385
160.4200     472
160.4400     409
160.4600     304
160.4800     284
160.5000     295
160.5200     291
160.5400     289
160.5600     324
160.5800     360
160.6000     329
160.6200     274
160.6400     234
160.6600     217
160.6800     285
160.7000     369
160.7200     361
160.7400     321
160.7600     301
160.7800     294
160.8000     312
160.8200     336
160.8400     337
160.8600     337
160.8800     377
160.9000     418
160.9200     382
160.9400     314
160.9600     238
160.9800     172
161.0000     176
161.0200     214
161.0400     284
161.0600     359
161.0800     404
161.1000     415
161.1200     321
161.1400     204
161.1600     184
161.1800     202
161.2000     223
161.2200     244
161.2400     257
161.2600     269
161.2800     296
161.3000     312
161.3200     251
161.3400     179
161.3600     206
161.3800     265
161.4000     292
161.4200     308
161.4400     332
161.4600     351
161.4800     320
161.5000     278
161.5200     276
161.5400     285
161.5600     269
161.5800     238
161.6000     184
161.6200     141
161.6400     203
161.6600     292
161.6800     306
161.7000     292
161.7200     286
161.7400     289
161.7600     317
161.7800     342
161.8000     299
161.8200     241
161.8400     246
161.8600     267
161.8800     243
161.9000     207
161.9200     203
161.9400     213
161.9600     233
161.9800     253