File: XRD_Tool/XRD_Tool/bin/Debug/LDA_sample_name_56789_Psi-0_20180623-125722.txt
138.0000     511
138.0200     535
138.0400     576
138.0600     609
138.0800     572
138.1000     515
138.1200     505
138.1400     516
138.1600     542
138.1800     578
138.2000     634
138.2200     684
138.2400     667
138.2600     634
138.2800     656
138.3000     696
138.3200     714
138.3400     725
138.3600     741
138.3800     764
138.4000     807
138.4200     841
138.4400     783
138.4600     696
138.4800     641
138.5000     617
138.5200     681
138.5400     762
138.5600     745
138.5800     703
138.6000     736
138.6200     785
138.6400     767
138.6600     730
138.6800     726
138.7000     728
138.7200     689
138.7400     646
138.7600     668
138.7800     707
138.8000     702
138.8200     690
138.8400     728
138.8600     778
138.8800     787
138.9000     784
138.9200     811
138.9400     841
138.9600     831
138.9800     807
139.0000     796
139.0200     788
139.0400     769
139.0600     762
139.0800     840
139.1000     929
139.1200     906
139.1400     854
139.1600     882
139.1800     930
139.2000     920
139.2200     887
139.2400     862
139.2600     839
139.2800     811
139.3000     794
139.3200     837
139.3400     897
139.3600     917
139.3800     918
139.4000     906
139.4200     891
139.4400     889
139.4600     899
139.4800     936
139.5000     970
139.5200     935
139.5400     898
139.5600     981
139.5800    1087
139.6000    1061
139.6200     999
139.6400    1014
139.6600    1042
139.6800     983
139.7000     906
139.7200     914
139.7400     948
139.7600     941
139.7800     927
139.8000     966
139.8200    1010
139.8400     974
139.8600     917
139.8800     917
139.9000     935
139.9200     936
139.9400     937
139.9600     973
139.9800    1016
140.0000    1019
140.0200    1012
140.0400    1028
140.0600    1039
140.0800     975
140.1000     900
140.1200     915
140.1400     960
140.1600     967
140.1800     962
140.2000     973
140.2200     987
140.2400     980
140.2600     959
140.2800     913
140.3000     874
140.3200     921
140.3400     984
140.3600     947
140.3800     890
140.4000     928
140.4200     991
140.4400     989
140.4600     959
140.4800     919
140.5000     884
140.5200     891
140.5400     913
140.5600     925
140.5800     938
140.6000     979
140.6200    1021
140.6400    1011
140.6600     986
140.6800     985
140.7000     984
140.7200     939
140.7400     891
140.7600     908
140.7800     937
140.8000     888
140.8200     829
140.8400     878
140.8600     961
140.8800     997
140.9000    1006
140.9200     965
140.9400     916
140.9600     920
140.9800     935
141.0000     890
141.0200     830
141.0400     807
141.0600     800
141.0800     801
141.1000     806
141.1200     818
141.1400     834
141.1600     860
141.1800     888
141.2000     909
141.2200     919
141.2400     888
141.2600     845
141.2800     827
141.3000     822
141.3200     837
141.3400     853
141.3600     839
141.3800     814
141.4000     794
141.4200     781
141.4400     796
141.4600     819
141.4800     826
141.5000     823
141.5200     810
141.5400     785
141.5600     725
141.5800     662
141.6000     654
141.6200     665
141.6400     664
141.6600     663
141.6800     686
141.7000     712
141.7200     713
141.7400     704
141.7600     702
141.7800     696
141.8000     665
141.8200     637
141.8400     682
141.8600     741
141.8800     722
141.9000     676
141.9200     650
141.9400     637
141.9600     652
141.9800     674
142.0000     673
142.0200     670
142.0400     705
142.0600     745
142.0800     734
142.1000     703
142.1200     677
142.1400     651
142.1600     620
142.1800     594
142.2000     606
142.2200     625
142.2400     596
142.2600     562
142.2800     603
142.3000     654
142.3200     608
142.3400     546
142.3600     591
142.3800     661
142.4000     646
142.4200     597
142.4400     555
142.4600     528
142.4800     567
142.5000     622
142.5200     619
142.5400     597
142.5600     597
142.5800     605
142.6000     614
142.6200     623
142.6400     627
142.6600     626
142.6800     609
142.7000     583
142.7200     547
142.7400     513
142.7600     510
142.7800     519
142.8000     523
142.8200     525
142.8400     522
142.8600     511
142.8800     463
142.9000     410
142.9200     401
142.9400     411
142.9600     436
142.9800     458
143.0000     440
143.0200     411
143.0400     410
143.0600     422
143.0800     443
143.1000     462
143.1200     459
143.1400     457
143.1600     502
143.1800     547
143.2000     497
143.2200     424
143.2400     427
143.2600     457
143.2800     464
143.3000     463
143.3200     465
143.3400     471
143.3600     489
143.3800     501
143.4000     463
143.4200     409
143.4400     377
143.4600     361
143.4800     388
143.5000     425
143.5200     429
143.5400     422
143.5600     428
143.5800     433
143.6000     401
143.6200     369
143.6400     402
143.6600     449
143.6800     428
143.7000     387
143.7200     386
143.7400     394
143.7600     370
143.7800     347
143.8000     389
143.8200     441
143.8400     413
143.8600     364
143.8800     370
143.9000     387
143.9200     347
143.9400     303
143.9600     348
143.9800     414
144.0000     413
144.0200     384
144.0400     352
144.0600     328
144.0800     357
144.1000     397
144.1200     386
144.1400     356
144.1600     337
144.1800     330
144.2000     357
144.2200     390
144.2400     393
144.2600     386
144.2800     396
144.3000     401
144.3200     351
144.3400     296
144.3600     331
144.3800     389
144.4000     389
144.4200     373
144.4400     400
144.4600     429
144.4800     380
144.5000     307
144.5200     269
144.5400     249
144.5600     254
144.5800     270
144.6000     298
144.6200     324
144.6400     320
144.6600     304
144.6800     289
144.7000     278
144.7200     282
144.7400     293
144.7600     306
144.7800     317
144.8000     311
144.8200     299
144.8400     284
144.8600     275
144.8800     302
144.9000     329
144.9200     278
144.9400     213
144.9600     231
144.9800     276
145.0000     283
145.0200     277
145.0400     284
145.0600     289
145.0800     259
145.1000     225
145.1200     243
145.1400     275
145.1600     279
145.1800     272
145.2000     270
145.2200     263
145.2400     226
145.2600     193
145.2800     248
145.3000     319
145.3200     290
145.3400     233
145.3600     228
145.3800     247
145.4000     286
145.4200     325
145.4400     332
145.4600     322
145.4800     292
145.5000     259
145.5200     246
145.5400     239
145.5600     215
145.5800     196
145.6000     231
145.6200     273
145.6400     250
145.6600     209
145.6800     211
145.7000     230
145.7200     246
145.7400     254
145.7600     232
145.7800     210
145.8000     248
145.8200     297
145.8400     279
145.8600     244
145.8800     252
145.9000     266
145.9200     219
145.9400     161
145.9600     178
145.9800     221
146.0000     252
146.0200     277
146.0400     296
146.0600     311
146.0800     326
146.1000     334
146.1200     315
146.1400     289
146.1600     283
146.1800     282
146.2000     265
146.2200     242
146.2400     227
146.2600     218
146.2800     224
146.3000     232
146.3200     217
146.3400     196
146.3600     193
146.3800     194
146.4000     178
146.4200     164
146.4400     185
146.4600     214
146.4800     208
146.5000     189
146.5200     173
146.5400     163
146.5600     170
146.5800     182
146.6000     184
146.6200     184
146.6400     196
146.6600     211
146.6800     221
146.7000     232
146.7200     258
146.7400     284
146.7600     281
146.7800     264
146.8000     231
146.8200     197
146.8400     193
146.8600     202
146.8800     219
146.9000     232
146.9200     208
146.9400     176
146.9600     173
146.9800     181
147.0000     189
147.0200     198
147.0400     217
147.0600     238
147.0800     257
147.1000     268
147.1200     243
147.1400     208
147.1600     198
147.1800     198
147.2000     201
147.2200     201
147.2400     181
147.2600     167
147.2800     220
147.3000     281
147.3200     247
147.3400     194
147.3600     239
147.3800     310
147.4000     316
147.4200     296
147.4400     274
147.4600     254
147.4800     244
147.5000     240
147.5200     246
147.5400     252
147.5600     238
147.5800     217
147.6000     200
147.6200     188
147.6400     197
147.6600     213
147.6800     216
147.7000     216
147.7200     226
147.7400     243
147.7600     273
147.7800     302
147.8000     293
147.8200     274
147.8400     281
147.8600     295
147.8800     284
147.9000     262
147.9200     232
147.9400     204
147.9600     204
147.9800     213
148.0000     207
148.0200     191
148.0400     155
148.0600     121
148.0800     139
148.1000     173
148.1200     189
148.1400     198
148.1600     217
148.1800     233
148.2000     217
148.2200     192
148.2400     184
148.2600     179
148.2800     159
148.3000     148
148.3200     210
148.3400     284
148.3600     266
148.3800     220
148.4000     211
148.4200     214
148.4400     202
148.4600     186
148.4800     178
148.5000     176
148.5200     182
148.5400     192
148.5600     197
148.5800     201
148.6000     205
148.6200     213
148.6400     238
148.6600     262
148.6800     251
148.7000     222
148.7200     176
148.7400     133
148.7600     133
148.7800     154
148.8000     185
148.8200     217
148.8400     229
148.8600     229
148.8800     211
148.9000     188
148.9200     182
148.9400     183
148.9600     189
148.9800     196
149.0000     198
149.0200     195
149.0400     182
149.0600     164
149.0800     149
149.1000     136
149.1200     128
149.1400     132
149.1600     181
149.1800     235
149.2000     219
149.2200     183
149.2400     185
149.2600     204
149.2800     225
149.3000     239
149.3200     211
149.3400     172
149.3600     156
149.3800     154
149.4000     167
149.4200     183
149.4400     177
149.4600     166
149.4800     169
149.5000     179
149.5200     200
149.5400     218
149.5600     191
149.5800     153
149.6000     142
149.6200     147
149.6400     177
149.6600     210
149.6800     208
149.7000     192
149.7200     176
149.7400     167
149.7600     196
149.7800     230
149.8000     214
149.8200     183
149.8400     174
149.8600     174
149.8800     179
149.9000     180
149.9200     156
149.9400     132
149.9600     156
149.9800     199
150.0000     235
150.0200     264
150.0400     268
150.0600     259
150.0800     234
150.1000     204
150.1200     189
150.1400     175
150.1600     141
150.1800     114
150.2000     162
150.2200     229
150.2400     244
150.2600     242
150.2800     257
150.3000     272
150.3200     252
150.3400     224
150.3600     224
150.3800     233
150.4000     229
150.4200     216
150.4400     191
150.4600     163
150.4800     145
150.5000     138
150.5200     163
150.5400     191
150.5600     167
150.5800     129
150.6000     118
150.6200     124
150.6400     161
150.6600     201
150.6800     186
150.7000     163
150.7200     207
150.7400     260
150.7600     230
150.7800     175
150.8000     170
150.8200     184
150.8400     200
150.8600     210
150.8800     191
150.9000     165
150.9200     156
150.9400     157
150.9600     171
150.9800     188
151.0000     187
151.0200     175
151.0400     148
151.0600     119
151.0800     117
151.1000     126
151.1200     141
151.1400     156
151.1600     156
151.1800     152
151.2000     157
151.2200     164
151.2400     169
151.2600     172
151.2800     172
151.3000     168
151.3200     154
151.3400     140
151.3600     149
151.3800     161
151.4000     140
151.4200     117
151.4400     147
151.4600     189
151.4800     183
151.5000     167
151.5200     199
151.5400     236
151.5600     198
151.5800     145
151.6000     164
151.6200     202
151.6400     191
151.6600     168
151.6800     175
151.7000     189
151.7200     173
151.7400     149
151.7600     143
151.7800     147
151.8000     160
151.8200     179
151.8400     213
151.8600     241
151.8800     209
151.9000     160
151.9200     151
151.9400     157
151.9600     165
151.9800     173
152.0000     186
152.0200     196
152.0400     189
152.0600     175
152.0800     160
152.1000     141
152.1200     108
152.1400      84
152.1600     125
152.1800     182
152.2000     182
152.2200     162
152.2400     151
152.2600     145
152.2800     152
152.3000     164
152.3200     178
152.3400     186
152.3600     164
152.3800     130
152.4000      94
152.4200      71
152.4400     111
152.4600     164
152.4800     151
152.5000     117
152.5200     116
152.5400     125
152.5600     116
152.5800     109
152.6000     148
152.6200     194
152.6400     179
152.6600     149
152.6800     172
152.7000     207
152.7200     195
152.7400     166
152.7600     137
152.7800     118
152.8000     142
152.8200     178
152.8400     184
152.8600     182
152.8800     200
152.9000     215
152.9200     174
152.9400     121
152.9600     128
152.9800     153
153.0000     156
153.0200     151
153.0400     151
153.0600     157
153.0800     183
153.1000     214
153.1200     230
153.1400     230
153.1600     175
153.1800     115
153.2000     133
153.2200     178
153.2400     197
153.2600     201
153.2800     185
153.3000     158
153.3200     116
153.3400      84
153.3600     135
153.3800     204
153.4000     195
153.4200     159
153.4400     143
153.4600     135
153.4800     132
153.5000     132
153.5200     145
153.5400     163
153.5600     181
153.5800     190
153.6000     151
153.6200     107
153.6400     133
153.6600     183
153.6800     211
153.7000     226
153.7200     216
153.7400     194
153.7600     164
153.7800     132
153.8000     113
153.8200     105
153.8400     124
153.8600     149
153.8800     147
153.9000     138
153.9200     141
153.9400     147
153.9600     143
153.9800     139
154.0000     156
154.0200     173
154.0400     144
154.0600     107
154.0800     130
154.1000     170
154.1200     180
154.1400     173
154.1600     143
154.1800     106
154.2000      84
154.2200      80
154.2400     136
154.2600     198
154.2800     175
154.3000     125
154.3200     117
154.3400     123
154.3600     122
154.3800     119
154.4000     121
154.4200     129
154.4400     157
154.4600     187
154.4800     187
154.5000     176
154.5200     167
154.5400     162
154.5600     177
154.5800     197
154.6000     209
154.6200     213
154.6400     202
154.6600     180
154.6800     138
154.7000     101
154.7200     131
154.7400     176
154.7600     166
154.7800     141
154.8000     154
154.8200     180
154.8400     194
154.8600     204
154.8800     209
154.9000     205
154.9200     161
154.9400     108
154.9600      92
154.9800      94
155.0000     119
155.0200     153
155.0400     184
155.0600     205
155.0800     184
155.1000     158
155.1200     187
155.1400     228
155.1600     211
155.1800     173
155.2000     145
155.2200     126
155.2400     137
155.2600     154
155.2800     148
155.3000     134
155.3200     130
155.3400     128
155.3600     117
155.3800     105
155.4000      98
155.4200      98
155.4400     118
155.4600     150
155.4800     200
155.5000     244
155.5200     217
155.5400     160
155.5600     101
155.5800      54
155.6000      70
155.6200     105
155.6400     105
155.6600      98
155.6800     121
155.7000     151
155.7200     151
155.7400     143
155.7600     152
155.7800     161
155.8000     135
155.8200     103
155.8400     111
155.8600     126
155.8800      96
155.9000      59
155.9200      82
155.9400     124
155.9600     146
155.9800     164
156.0000     205
156.0200     241
156.0400     207
156.0600     156
156.0800     155
156.1000     167
156.1200     137
156.1400      99
156.1600     101
156.1800     119
156.2000     132
156.2200     145
156.2400     161
156.2600     175
156.2800     168
156.3000     159
156.3200     190
156.3400     226
156.3600     212
156.3800     177
156.4000     140
156.4200     109
156.4400     110
156.4600     124
156.4800     138
156.5000     148
156.5200     138
156.5400     121
156.5600     112
156.5800     109
156.6000     121
156.6200     136
156.6400     136
156.6600     131
156.6800     131
156.7000     134
156.7200     139
156.7400     144
156.7600     146
156.7800     146
156.8000     151
156.8200     157
156.8400     166
156.8600     174
156.8800     167
156.9000     154
156.9200     133
156.9400     114
156.9600     120
156.9800     134
157.0000     139
157.0200     143
157.0400     157
157.0600     169
157.0800     148
157.1000     117
157.1200     103
157.1400      97
157.1600     102
157.1800     109
157.2000     101
157.2200      90
157.2400      91
157.2600     101
157.2800     129
157.3000     159
157.3200     157
157.3400     142
157.3600     117
157.3800      95
157.4000     103
157.4200     117
157.4400     101
157.4600      77
157.4800      71
157.5000      75
157.5200      89
157.5400     109
157.5600     134
157.5800     154
157.6000     136
157.6200     106
157.6400      94
157.6600      99
157.6800     151
157.7000     208
157.7200     198
157.7400     170
157.7600     184
157.7800     205
157.8000     183
157.8200     149
157.8400     145
157.8600     153
157.8800     164
157.9000     172
157.9200     160
157.9400     144
157.9600     148
157.9800     157
158.0000     148
158.0200     134
158.0400     135
158.0600     139
158.0800     136
158.1000     134
158.1200     149
158.1400     165
158.1600     149
158.1800     125
158.2000     123
158.2200     128
158.2400     126
158.2600     123
158.2800     127
158.3000     135
158.3200     151
158.3400     168
158.3600     170
158.3800     165
158.4000     155
158.4200     147
158.4400     159
158.4600     174
158.4800     166
158.5000     146
158.5200     118
158.5400      85
158.5600      48
158.5800      22
158.6000      56
158.6200     109
158.6400     134
158.6600     143
158.6800     129
158.7000     111
158.7200     123
158.7400     144
158.7600     155
158.7800     156
158.8000     130
158.8200     104
158.8400     128
158.8600     164
158.8800     158
158.9000     139
158.9200     134
158.9400     130
158.9600     109
158.9800      88
159.0000      99
159.0200     118
159.0400     115
159.0600     109
159.0800     131
159.1000     154
159.1200     117
159.1400      67
159.1600      67
159.1800      88
159.2000     111
159.2200     126
159.2400     101
159.2600      68
159.2800      82
159.3000     108
159.3200     109
159.3400     102
159.3600     108
159.3800     114
159.4000      92
159.4200      68
159.4400      97
159.4600     134
159.4800     105
159.5000      56
159.5200      45
159.5400      49
159.5600      50
159.5800      57
159.6000      99
159.6200     141
159.6400     114
159.6600      71
159.6800      83
159.7000     111
159.7200     106
159.7400      94
159.7600     114
159.7800     139
159.8000     132
159.8200     111
159.8400      87
159.8600      67
159.8800      80
159.9000     108
159.9200     146
159.9400     182
159.9600     183
159.9800     167
160.0000     128
160.0200      92
160.0400     121
160.0600     161
160.0800     129
160.1000      78
160.1200      70
160.1400      79
160.1600      83
160.1800      85
160.2000      86
160.2200      88
160.2400     101
160.2600     115
160.2800     109
160.3000      96
160.3200      87
160.3400      82
160.3600      97
160.3800     119
160.4000     141
160.4200     158
160.4400     153
160.4600     142
160.4800     141
160.5000     143
160.5200     133
160.5400     128
160.5600     165
160.5800     206
160.6000     182
160.6200     141
160.6400     147
160.6600     162
160.6800     135
160.7000      95
160.7200      77
160.7400      72
160.7600      90
160.7800     113
160.8000     113
160.8200     104
160.8400      98
160.8600     101
160.8800     141
160.9000     181
160.9200     154
160.9400     111
160.9600     118
160.9800     135
161.0000      99
161.0200      49
161.0400      37
161.0600      46
161.0800      77
161.1000     113
161.1200     130
161.1400     134
161.1600     105
161.1800      74
161.2000      98
161.2200     138
161.2400     146
161.2600     139
161.2800     119
161.3000      94
161.3200      77
161.3400      68
161.3600      81
161.3800     102
161.4000     116
161.4200     123
161.4400     107
161.4600      84
161.4800      78
161.5000      78
161.5200      79
161.5400      85
161.5600     106
161.5800     127
161.6000     110
161.6200      82
161.6400      74
161.6600      70
161.6800      51
161.7000      35
161.7200      69
161.7400     117
161.7600     133
161.7800     135
161.8000     129
161.8200     120
161.8400     119
161.8600     115
161.8800      78
161.9000      43
161.9200      86
161.9400     143
161.9600     114
161.9800      59