File: XRD_Tool/XRD_Tool/bin/Debug/LDA_sample_name_56789_Psi-0_20180603-115751.txt
137.2000     223
137.2400     228
137.2800     242
137.3200     257
137.3600     266
137.4000     243
137.4400     250
137.4800     281
137.5200     253
137.5600     288
137.6000     260
137.6400     222
137.6800     244
137.7200     243
137.7600     244
137.8000     267
137.8400     271
137.8800     275
137.9200     263
137.9600     272
138.0000     239
138.0400     254
138.0800     257
138.1200     282
138.1600     270
138.2000     234
138.2400     270
138.2800     286
138.3200     274
138.3600     276
138.4000     291
138.4400     235
138.4800     282
138.5200     253
138.5600     252
138.6000     244
138.6400     253
138.6800     288
138.7200     238
138.7600     279
138.8000     235
138.8400     247
138.8800     218
138.9200     265
138.9600     259
139.0000     237
139.0400     252
139.0800     266
139.1200     246
139.1600     258
139.2000     275
139.2400     253
139.2800     248
139.3200     245
139.3600     239
139.4000     248
139.4400     279
139.4800     251
139.5200     287
139.5600     239
139.6000     254
139.6400     228
139.6800     248
139.7200     244
139.7600     254
139.8000     233
139.8400     245
139.8800     251
139.9200     235
139.9600     282
140.0000     245
140.0400     257
140.0800     270
140.1200     270
140.1600     265
140.2000     263
140.2400     250
140.2800     259
140.3200     268
140.3600     252
140.4000     279
140.4400     258
140.4800     264
140.5200     266
140.5600     260
140.6000     261
140.6400     241
140.6800     266
140.7200     274
140.7600     253
140.8000     250
140.8400     278
140.8800     267
140.9200     245
140.9600     240
141.0000     261
141.0400     242
141.0800     250
141.1200     246
141.1600     253
141.2000     275
141.2400     269
141.2800     225
141.3200     269
141.3600     258
141.4000     234
141.4400     286
141.4800     293
141.5200     241
141.5600     251
141.6000     284
141.6400     234
141.6800     237
141.7200     251
141.7600     262
141.8000     254
141.8400     248
141.8800     243
141.9200     257
141.9600     259
142.0000     262
142.0400     261
142.0800     286
142.1200     272
142.1600     230
142.2000     254
142.2400     268
142.2800     286
142.3200     293
142.3600     265
142.4000     251
142.4400     264
142.4800     281
142.5200     283
142.5600     285
142.6000     280
142.6400     262
142.6800     264
142.7200     241
142.7600     269
142.8000     252
142.8400     239
142.8800     272
142.9200     262
142.9600     277
143.0000     275
143.0400     248
143.0800     286
143.1200     296
143.1600     275
143.2000     260
143.2400     283
143.2800     263
143.3200     252
143.3600     259
143.4000     254
143.4400     276
143.4800     257
143.5200     261
143.5600     243
143.6000     277
143.6400     289
143.6800     250
143.7200     279
143.7600     269
143.8000     255
143.8400     294
143.8800     274
143.9200     290
143.9600     297
144.0000     286
144.0400     249
144.0800     275
144.1200     298
144.1600     269
144.2000     293
144.2400     255
144.2800     303
144.3200     266
144.3600     233
144.4000     274
144.4400     254
144.4800     293
144.5200     252
144.5600     266
144.6000     255
144.6400     264
144.6800     246
144.7200     267
144.7600     274
144.8000     281
144.8400     264
144.8800     259
144.9200     246
144.9600     263
145.0000     235
145.0400     276
145.0800     285
145.1200     239
145.1600     283
145.2000     276
145.2400     277
145.2800     283
145.3200     285
145.3600     298
145.4000     256
145.4400     300
145.4800     256
145.5200     254
145.5600     294
145.6000     281
145.6400     288
145.6800     257
145.7200     245
145.7600     264
145.8000     251
145.8400     265
145.8800     270
145.9200     277
145.9600     264
146.0000     254
146.0400     295
146.0800     267
146.1200     271
146.1600     298
146.2000     258
146.2400     277
146.2800     275
146.3200     269
146.3600     261
146.4000     290
146.4400     272
146.4800     272
146.5200     269
146.5600     272
146.6000     309
146.6400     283
146.6800     246
146.7200     258
146.7600     275
146.8000     268
146.8400     277
146.8800     270
146.9200     296
146.9600     246
147.0000     299
147.0400     259
147.0800     256
147.1200     270
147.1600     258
147.2000     262
147.2400     267
147.2800     294
147.3200     275
147.3600     262
147.4000     281
147.4400     280
147.4800     279
147.5200     288
147.5600     300
147.6000     285
147.6400     289
147.6800     293
147.7200     265
147.7600     280
147.8000     265
147.8400     269
147.8800     260
147.9200     311
147.9600     308
148.0000     317
148.0400     304
148.0800     282
148.1200     276
148.1600     295
148.2000     274
148.2400     246
148.2800     295
148.3200     286
148.3600     313
148.4000     291
148.4400     286
148.4800     290
148.5200     306
148.5600     264
148.6000     253
148.6400     310
148.6800     283
148.7200     306
148.7600     282
148.8000     303
148.8400     266
148.8800     300
148.9200     284
148.9600     312
149.0000     290
149.0400     296
149.0800     305
149.1200     274
149.1600     279
149.2000     327
149.2400     327
149.2800     302
149.3200     303
149.3600     315
149.4000     281
149.4400     275
149.4800     342
149.5200     307
149.5600     303
149.6000     311
149.6400     316
149.6800     289
149.7200     305
149.7600     285
149.8000     300
149.8400     281
149.8800     293
149.9200     264
149.9600     302
150.0000     307
150.0400     319
150.0800     308
150.1200     290
150.1600     293
150.2000     282
150.2400     318
150.2800     312
150.3200     314
150.3600     310
150.4000     314
150.4400     318
150.4800     319
150.5200     307
150.5600     318
150.6000     311
150.6400     309
150.6800     315
150.7200     313
150.7600     312
150.8000     331
150.8400     328
150.8800     311
150.9200     335
150.9600     314
151.0000     313
151.0400     318
151.0800     343
151.1200     357
151.1600     340
151.2000     341
151.2400     329
151.2800     358
151.3200     335
151.3600     365
151.4000     338
151.4400     350
151.4800     331
151.5200     373
151.5600     400
151.6000     365
151.6400     358
151.6800     339
151.7200     333
151.7600     360
151.8000     358
151.8400     350
151.8800     325
151.9200     348
151.9600     365
152.0000     377
152.0400     387
152.0800     367
152.1200     412
152.1600     420
152.2000     404
152.2400     397
152.2800     418
152.3200     377
152.3600     410
152.4000     407
152.4400     417
152.4800     444
152.5200     417
152.5600     433
152.6000     451
152.6400     427
152.6800     486
152.7200     481
152.7600     475
152.8000     488
152.8400     530
152.8800     548
152.9200     491
152.9600     490
153.0000     515
153.0400     519
153.0800     548
153.1200     542
153.1600     535
153.2000     558
153.2400     584
153.2800     613
153.3200     546
153.3600     564
153.4000     651
153.4400     621
153.4800     629
153.5200     611
153.5600     642
153.6000     691
153.6400     624
153.6800     670
153.7200     672
153.7600     733
153.8000     673
153.8400     674
153.8800     662
153.9200     719
153.9600     708
154.0000     675
154.0400     691
154.0800     651
154.1200     708
154.1600     708
154.2000     784
154.2400     779
154.2800     716
154.3200     717
154.3600     786
154.4000     777
154.4400     788
154.4800     741
154.5200     784
154.5600     792
154.6000     712
154.6400     768
154.6800     772
154.7200     775
154.7600     733
154.8000     774
154.8400     791
154.8800     778
154.9200     793
154.9600     808
155.0000     778
155.0400     761
155.0800     747
155.1200     663
155.1600     717
155.2000     657
155.2400     721
155.2800     760
155.3200     657
155.3600     665
155.4000     696
155.4400     637
155.4800     646
155.5200     638
155.5600     653
155.6000     645
155.6400     601
155.6800     591
155.7200     611
155.7600     620
155.8000     647
155.8400     619
155.8800     590
155.9200     552
155.9600     523
156.0000     544
156.0400     574
156.0800     535
156.1200     602
156.1600     538
156.2000     551
156.2400     540
156.2800     535
156.3200     511
156.3600     501
156.4000     472
156.4400     482
156.4800     504
156.5200     491
156.5600     463
156.6000     484
156.6400     431
156.6800     461
156.7200     426
156.7600     448
156.8000     423
156.8400     456
156.8800     431
156.9200     432
156.9600     437
157.0000     435
157.0400     418
157.0800     404
157.1200     396
157.1600     374
157.2000     407
157.2400     374
157.2800     385
157.3200     408
157.3600     365
157.4000     402
157.4400     385
157.4800     411
157.5200     366
157.5600     367
157.6000     368
157.6400     339
157.6800     362
157.7200     340
157.7600     365
157.8000     337
157.8400     379
157.8800     394
157.9200     348
157.9600     347
158.0000     413
158.0400     333
158.0800     336
158.1200     346
158.1600     391
158.2000     331
158.2400     326
158.2800     367
158.3200     323
158.3600     319
158.4000     332
158.4400     350
158.4800     312
158.5200     325
158.5600     304
158.6000     311
158.6400     310
158.6800     350
158.7200     333
158.7600     334
158.8000     303
158.8400     343
158.8800     303
158.9200     296
158.9600     310
159.0000     332
159.0400     339
159.0800     323
159.1200     306
159.1600     283
159.2000     312
159.2400     320
159.2800     299
159.3200     301
159.3600     350
159.4000     304
159.4400     330
159.4800     269
159.5200     292
159.5600     313
159.6000     315
159.6400     301
159.6800     306
159.7200     265
159.7600     289
159.8000     303
159.8400     310
159.8800     296
159.9200     299
159.9600     295
160.0000     315
160.0400     285
160.0800     292
160.1200     287
160.1600     304
160.2000     283
160.2400     290
160.2800     300
160.3200     285
160.3600     268
160.4000     299
160.4400     308
160.4800     265
160.5200     285
160.5600     268
160.6000     326
160.6400     318
160.6800     268
160.7200     294
160.7600     318
160.8000     250
160.8400     256
160.8800     272
160.9200     285
160.9600     292
161.0000     249
161.0400     296
161.0800     283
161.1200     292
161.1600     295
161.2000     282
161.2400     296
161.2800     294
161.3200     304
161.3600     293
161.4000     237
161.4400     271
161.4800     306
161.5200     278
161.5600     306
161.6000     311
161.6400     256
161.6800     267
161.7200     287
161.7600     272
161.8000     284
161.8400     259
161.8800     270
161.9200     254
161.9600     312
162.0000     308
162.0400     237
162.0800     305
162.1200     280
162.1600     294
162.2000     279
162.2400     270
162.2800     262
162.3200     292
162.3600     245
162.4000     272
162.4400     252
162.4800     261
162.5200     282
162.5600     268
162.6000     271
162.6400     283
162.6800     257
162.7200     241
162.7600     259