File: XRD_Tool/XRD_Tool/bin/Debug/LDA_sample_name_56789_Psi-0_20180622-235809.txt
141.0000     188
141.0200      93
141.0400     145
141.0600     240
141.0800     263
141.1000     257
141.1200     248
141.1400     246
141.1600     286
141.1800     326
141.2000     291
141.2200     236
141.2400     236
141.2600     252
141.2800     240
141.3000     226
141.3200     267
141.3400     322
141.3600     340
141.3800     336
141.4000     290
141.4200     242
141.4400     264
141.4600     309
141.4800     326
141.5000     320
141.5200     252
141.5400     176
141.5600     177
141.5800     211
141.6000     255
141.6200     286
141.6400     232
141.6600     160
141.6800     169
141.7000     210
141.7200     243
141.7400     266
141.7600     254
141.7800     233
141.8000     237
141.8200     251
141.8400     263
141.8600     267
141.8800     233
141.9000     192
141.9200     194
141.9400     214
141.9600     234
141.9800     253
142.0000     265
142.0200     267
142.0400     228
142.0600     188
142.0800     229
142.1000     296
142.1200     325
142.1400     335
142.1600     325
142.1800     308
142.2000     294
142.2200     284
142.2400     286
142.2600     288
142.2800     272
142.3000     255
142.3200     273
142.3400     299
142.3600     295
142.3800     278
142.4000     256
142.4200     241
142.4400     271
142.4600     303
142.4800     255
142.5000     186
142.5200     173
142.5400     184
142.5600     200
142.5800     226
142.6000     287
142.6200     344
142.6400     308
142.6600     246
142.6800     244
142.7000     258
142.7200     235
142.7400     210
142.7600     247
142.7800     294
142.8000     268
142.8200     227
142.8400     262
142.8600     325
142.8800     370
142.9000     388
142.9200     306
142.9400     204
142.9600     204
142.9800     242
143.0000     271
143.0200     296
143.0400     313
143.0600     313
143.0800     245
143.1000     171
143.1200     208
143.1400     285
143.1600     332
143.1800     358
143.2000     336
143.2200     301
143.2400     303
143.2600     307
143.2800     256
143.3000     198
143.3200     223
143.3400     266
143.3600     231
143.3800     174
143.4000     165
143.4200     178
143.4400     206
143.4600     232
143.4800     215
143.5000     193
143.5200     231
143.5400     277
143.5600     243
143.5800     186
143.6000     177
143.6200     190
143.6400     215
143.6600     246
143.6800     280
143.7000     308
143.7200     293
143.7400     264
143.7600     253
143.7800     253
143.8000     273
143.8200     294
143.8400     278
143.8600     255
143.8800     264
143.9000     282
143.9200     280
143.9400     272
143.9600     277
143.9800     283
144.0000     264
144.0200     240
144.0400     236
144.0600     239
144.0800     235
144.1000     237
144.1200     274
144.1400     322
144.1600     352
144.1800     366
144.2000     343
144.2200     308
144.2400     288
144.2600     276
144.2800     274
144.3000     272
144.3200     250
144.3400     228
144.3600     246
144.3800     275
144.4000     276
144.4200     267
144.4400     265
144.4600     274
144.4800     331
144.5000     388
144.5200     348
144.5400     284
144.5600     289
144.5800     307
144.6000     258
144.6200     198
144.6400     215
144.6600     256
144.6800     265
144.7000     267
144.7200     299
144.7400     328
144.7600     284
144.7800     222
144.8000     223
144.8200     247
144.8400     260
144.8600     260
144.8800     225
144.9000     181
144.9200     169
144.9400     176
144.9600     221
144.9800     273
145.0000     287
145.0200     280
145.0400     246
145.0600     216
145.0800     253
145.1000     309
145.1200     326
145.1400     329
145.1600     332
145.1800     337
145.2000     347
145.2200     353
145.2400     331
145.2600     302
145.2800     301
145.3000     318
145.3200     367
145.3400     414
145.3600     386
145.3800     333
145.4000     307
145.4200     293
145.4400     290
145.4600     295
145.4800     314
145.5000     340
145.5200     381
145.5400     412
145.5600     368
145.5800     302
145.6000     274
145.6200     265
145.6400     269
145.6600     272
145.6800     239
145.7000     209
145.7200     270
145.7400     357
145.7600     389
145.7800     401
145.8000     422
145.8200     436
145.8400     400
145.8600     345
145.8800     298
145.9000     262
145.9200     266
145.9400     293
145.9600     352
145.9800     403
146.0000     350
146.0200     273
146.0400     278
146.0600     313
146.0800     335
146.1000     346
146.1200     332
146.1400     308
146.1600     284
146.1800     267
146.2000     288
146.2200     330
146.2400     404
146.2600     463
146.2800     385
146.3000     282
146.3200     322
146.3400     400
146.3600     375
146.3800     319
146.4000     316
146.4200     330
146.4400     324
146.4600     315
146.4800     326
146.5000     343
146.5200     345
146.5400     339
146.5600     323
146.5800     314
146.6000     357
146.6200     407
146.6400     388
146.6600     342
146.6800     293
146.7000     255
146.7200     275
146.7400     310
146.7600     298
146.7800     275
146.8000     282
146.8200     303
146.8400     326
146.8600     343
146.8800     328
146.9000     311
146.9200     349
146.9400     399
146.9600     397
146.9800     380
147.0000     388
147.0200     395
147.0400     346
147.0600     284
147.0800     273
147.1000     288
147.1200     325
147.1400     368
147.1600     394
147.1800     413
147.2000     427
147.2200     433
147.2400     411
147.2600     377
147.2800     343
147.3000     327
147.3200     401
147.3400     491
147.3600     481
147.3800     434
147.4000     402
147.4200     376
147.4400     348
147.4600     325
147.4800     327
147.5000     341
147.5200     362
147.5400     374
147.5600     331
147.5800     270
147.6000     234
147.6200     218
147.6400     255
147.6600     309
147.6800     340
147.7000     353
147.7200     319
147.7400     275
147.7600     269
147.7800     288
147.8000     352
147.8200     415
147.8400     383
147.8600     321
147.8800     294
147.9000     291
147.9200     333
147.9400     382
147.9600     378
147.9800     356
148.0000     352
148.0200     354
148.0400     348
148.0600     340
148.0800     344
148.1000     352
148.1200     361
148.1400     372
148.1600     385
148.1800     390
148.2000     352
148.2200     312
148.2400     357
148.2600     414
148.2800     368
148.3000     292
148.3200     279
148.3400     292
148.3600     307
148.3800     316
148.4000     295
148.4200     274
148.4400     321
148.4600     388
148.4800     417
148.5000     423
148.5200     391
148.5400     343
148.5600     295
148.5800     268
148.6000     347
148.6200     443
148.6400     406
148.6600     329
148.6800     315
148.7000     325
148.7200     323
148.7400     321
148.7600     334
148.7800     354
148.8000     372
148.8200     387
148.8400     386
148.8600     378
148.8800     370
148.9000     366
148.9200     387
148.9400     421
148.9600     473
148.9800     513
149.0000     450
149.0200     362
149.0400     359
149.0600     382
149.0800     372
149.1000     357
149.1200     390
149.1400     429
149.1600     401
149.1800     353
149.2000     334
149.2200     323
149.2400     302
149.2600     279
149.2800     271
149.3000     274
149.3200     300
149.3400     335
149.3600     367
149.3800     392
149.4000     390
149.4200     376
149.4400     350
149.4600     327
149.4800     336
149.5000     364
149.5200     424
149.5400     472
149.5600     405
149.5800     313
149.6000     334
149.6200     394
149.6400     419
149.6600     420
149.6800     368
149.7000     304
149.7200     293
149.7400     306
149.7600     329
149.7800     364
149.8000     431
149.8200     490
149.8400     449
149.8600     381
149.8800     383
149.9000     411
149.9200     431
149.9400     441
149.9600     422
149.9800     398
150.0000     404
150.0200     424
150.0400     453
150.0600     483
150.0800     503
150.1000     518
150.1200     533
150.1400     534
150.1600     473
150.1800     397
150.2000     370
150.2200     378
150.2400     469
150.2600     572
150.2800     572
150.3000     531
150.3200     493
150.3400     466
150.3600     484
150.3800     519
150.4000     547
150.4200     569
150.4400     571
150.4600     558
150.4800     510
150.5000     461
150.5200     474
150.5400     512
150.5600     553
150.5800     590
150.6000     599
150.6200     592
150.6400     558
150.6600     528
150.6800     566
150.7000     626
150.7200     655
150.7400     665
150.7600     645
150.7800     625
150.8000     670
150.8200     712
150.8400     614
150.8600     494
150.8800     547
150.9000     657
150.9200     704
150.9400     724
150.9600     736
150.9800     742
151.0000     739
151.0200     723
151.0400     652
151.0600     580
151.0800     608
151.1000     661
151.1200     641
151.1400     612
151.1600     690
151.1800     785
151.2000     758
151.2200     693
151.2400     680
151.2600     685
151.2800     676
151.3000     668
151.3200     687
151.3400     711
151.3600     708
151.3800     702
151.4000     733
151.4200     771
151.4400     772
151.4600     756
151.4800     727
151.5000     705
151.5200     743
151.5400     794
151.5600     793
151.5800     781
151.6000     814
151.6200     854
151.6400     834
151.6600     805
151.6800     853
151.7000     918
151.7200     916
151.7400     906
151.7600     983
151.7800    1077
151.8000    1081
151.8200    1038
151.8400     945
151.8600     845
151.8800     818
151.9000     818
151.9200     807
151.9400     810
151.9600     908
151.9800    1015
152.0000     980
152.0200     912
152.0400     961
152.0600    1036
152.0800    1006
152.1000     945
152.1200     940
152.1400     959
152.1600     982
152.1800    1021
152.2000    1140
152.2200    1268
152.2400    1286
152.2600    1259
152.2800    1227
152.3000    1192
152.3200    1150
152.3400    1113
152.3600    1109
152.3800    1118
152.4000    1121
152.4200    1125
152.4400    1149
152.4600    1188
152.4800    1267
152.5000    1356
152.5200    1418
152.5400    1465
152.5600    1489
152.5800    1499
152.6000    1489
152.6200    1472
152.6400    1458
152.6600    1449
152.6800    1457
152.7000    1478
152.7200    1534
152.7400    1607
152.7600    1698
152.7800    1772
152.8000    1723
152.8200    1649
152.8400    1693
152.8600    1767
152.8800    1749
152.9000    1705
152.9200    1706
152.9400    1741
152.9600    1849
152.9800    1962
153.0000    1949
153.0200    1892
153.0400    1871
153.0600    1860
153.0800    1821
153.1000    1807
153.1200    1976
153.1400    2175
153.1600    2158
153.1800    2069
153.2000    2060
153.2200    2095
153.2400    2193
153.2600    2310
153.2800    2392
153.3000    2450
153.3200    2458
153.3400    2436
153.3600    2364
153.3800    2287
153.4000    2287
153.4200    2321
153.4400    2377
153.4600    2434
153.4800    2456
153.5000    2469
153.5200    2510
153.5400    2549
153.5600    2521
153.5800    2481
153.6000    2506
153.6200    2547
153.6400    2531
153.6600    2508
153.6800    2557
153.7000    2624
153.7200    2639
153.7400    2631
153.7600    2612
153.7800    2612
153.8000    2732
153.8200    2863
153.8400    2812
153.8600    2698
153.8800    2631
153.9000    2586
153.9200    2556
153.9400    2543
153.9600    2585
153.9800    2641
154.0000    2660
154.0200    2672
154.0400    2726
154.0600    2782
154.0800    2766
154.1000    2722
154.1200    2675
154.1400    2646
154.1600    2713
154.1800    2803
154.2000    2812
154.2200    2798
154.2400    2834
154.2600    2879
154.2800    2870
154.3000    2850
154.3200    2877
154.3400    2891
154.3600    2748
154.3800    2592
154.4000    2683
154.4200    2843
154.4400    2855
154.4600    2807
154.4800    2762
154.5000    2719
154.5200    2678
154.5400    2647
154.5600    2661
154.5800    2686
154.6000    2679
154.6200    2645
154.6400    2541
154.6600    2439
154.6800    2484
154.7000    2563
154.7200    2522
154.7400    2448
154.7600    2456
154.7800    2472
154.8000    2371
154.8200    2244
154.8400    2222
154.8600    2233
154.8800    2196
154.9000    2146
154.9200    2131
154.9400    2133
154.9600    2155
154.9800    2177
155.0000    2161
155.0200    2138
155.0400    2163
155.0600    2184
155.0800    2092
155.1000    1975
155.1200    1961
155.1400    1983
155.1600    1973
155.1800    1947
155.2000    1900
155.2200    1864
155.2400    1928
155.2600    1998
155.2800    1903
155.3000    1778
155.3200    1838
155.3400    1944
155.3600    1910
155.3800    1819
155.4000    1726
155.4200    1647
155.4400    1643
155.4600    1663
155.4800    1648
155.5000    1638
155.5200    1715
155.5400    1798
155.5600    1741
155.5800    1655
155.6000    1711
155.6200    1807
155.6400    1823
155.6600    1794
155.6800    1705
155.7000    1624
155.7200    1711
155.7400    1822
155.7600    1715
155.7800    1546
155.8000    1504
155.8200    1503
155.8400    1460
155.8600    1402
155.8800    1354
155.9000    1321
155.9200    1341
155.9400    1383
155.9600    1420
155.9800    1435
156.0000    1342
156.0200    1230
156.0400    1238
156.0600    1285
156.0800    1290
156.1000    1274
156.1200    1236
156.1400    1196
156.1600    1186
156.1800    1187
156.2000    1180
156.2200    1172
156.2400    1172
156.2600    1157
156.2800    1049
156.3000     922
156.3200     893
156.3400     918
156.3600    1018
156.3800    1115
156.4000    1042
156.4200     930
156.4400     956
156.4600    1028
156.4800    1045
156.5000    1045
156.5200    1067
156.5400    1080
156.5600    1008
156.5800     916
156.6000     897
156.6200     904
156.6400     891
156.6600     877
156.6800     891
156.7000     907
156.7200     872
156.7400     822
156.7600     803
156.7800     799
156.8000     804
156.8200     818
156.8400     863
156.8600     905
156.8800     866
156.9000     815
156.9200     870
156.9400     941
156.9600     872
156.9800     775
157.0000     810
157.0200     861
157.0400     732
157.0600     566
157.0800     578
157.1000     652
157.1200     676
157.1400     688
157.1600     740
157.1800     788
157.2000     734
157.2200     663
157.2400     704
157.2600     771
157.2800     743
157.3000     689
157.3200     693
157.3400     713
157.3600     690
157.3800     661
157.4000     690
157.4200     726
157.4400     682
157.4600     612
157.4800     572
157.5000     552
157.5200     574
157.5400     611
157.5600     646
157.5800     672
157.6000     655
157.6200     629
157.6400     645
157.6600     675
157.6800     695
157.7000     696
157.7200     622
157.7400     534
157.7600     529
157.7800     552
157.8000     548
157.8200     534
157.8400     515
157.8600     510
157.8800     582
157.9000     663
157.9200     637
157.9400     577
157.9600     554
157.9800     551
158.0000     576
158.0200     602
158.0400     575
158.0600     528
158.0800     491
158.1000     475
158.1200     547
158.1400     630
158.1600     590
158.1800     514
158.2000     510
158.2200     526
158.2400     503
158.2600     470
158.2800     462
158.3000     471
158.3200     514
158.3400     553
158.3600     508
158.3800     445
158.4000     457
158.4200     500
158.4400     547
158.4600     581
158.4800     550
158.5000     500
158.5200     490
158.5400     489
158.5600     455
158.5800     415
158.6000     418
158.6200     437
158.6400     448
158.6600     452
158.6800     436
158.7000     421
158.7200     452
158.7400     498
158.7600     519
158.7800     527
158.8000     515
158.8200     494
158.8400     468
158.8600     455
158.8800     517
158.9000     594
158.9200     594
158.9400     559
158.9600     499
158.9800     438
159.0000     417
159.0200     410
159.0400     385
159.0600     355
159.0800     340
159.1000     336
159.1200     360
159.1400     391
159.1600     394
159.1800     383
159.2000     360
159.2200     338
159.2400     343
159.2600     359
159.2800     375
159.3000     399
159.3200     468
159.3400     531
159.3600     479
159.3800     398
159.4000     404
159.4200     444
159.4400     484
159.4600     513
159.4800     488
159.5000     455
159.5200     487
159.5400     532
159.5600     507
159.5800     454
159.6000     396
159.6200     351
159.6400     378
159.6600     422
159.6800     406
159.7000     373
159.7200     376
159.7400     389
159.7600     377
159.7800     367
159.8000     414
159.8200     480
159.8400     524
159.8600     543
159.8800     479
159.9000     398
159.9200     405
159.9400     434
159.9600     395
159.9800     349
160.0000     401
160.0200     477
160.0400     475
160.0600     450
160.0800     472
160.1000     503
160.1200     489
160.1400     461
160.1600     453
160.1800     441
160.2000     374
160.2200     302
160.2400     320
160.2600     364
160.2800     360
160.3000     344
160.3200     369
160.3400     406
160.3600     417
160.3800     409
160.4000     362
160.4200     318
160.4400     363
160.4600     432
160.4800     449
160.5000     435
160.5200     368
160.5400     300
160.5600     337
160.5800     403
160.6000     409
160.6200     388
160.6400     352
160.6600     328
160.6800     397
160.7000     481
160.7200     452
160.7400     400
160.7600     456
160.7800     539
160.8000     537
160.8200     501
160.8400     462
160.8600     431
160.8800     445
160.9000     462
160.9200     405
160.9400     333
160.9600     328
160.9800     344
161.0000     333
161.0200     320
161.0400     347
161.0600     378
161.0800     344
161.1000     300
161.1200     333
161.1400     387
161.1600     394
161.1800     386
161.2000     400
161.2200     410
161.2400     358
161.2600     289
161.2800     252
161.3000     241
161.3200     300
161.3400     376
161.3600     400
161.3800     401
161.4000     387
161.4200     370
161.4400     370
161.4600     371
161.4800     349
161.5000     323
161.5200     330
161.5400     353
161.5600     391
161.5800     419
161.6000     369
161.6200     292
161.6400     238
161.6600     212
161.6800     274
161.7000     359
161.7200     379
161.7400     374
161.7600     373
161.7800     374
161.8000     383
161.8200     391
161.8400     377
161.8600     362
161.8800     382
161.9000     404
161.9200     361
161.9400     302
161.9600     288
161.9800     306
162.0000     394
162.0200     483
162.0400     434
162.0600     342
162.0800     311
162.1000     307
162.1200     308
162.1400     315
162.1600     334
162.1800     354
162.2000     354
162.2200     343
162.2400     317
162.2600     287
162.2800     272
162.3000     264
162.3200     269
162.3400     288
162.3600     349
162.3800     417
162.4000     437
162.4200     436
162.4400     433
162.4600     424
162.4800     388
162.5000     344
162.5200     309
162.5400     279
162.5600     259
162.5800     246
162.6000     251
162.6200     263
162.6400     275
162.6600     291
162.6800     329
162.7000     367
162.7200     365
162.7400     353
162.7600     371
162.7800     394
162.8000     380
162.8200     359
162.8400     370
162.8600     384
162.8800     348
162.9000     303
162.9200     318
162.9400     356
162.9600     396
162.9800     423
163.0000     388
163.0200     331
163.0400     289
163.0600     273
163.0800     355
163.1000     450
163.1200     410
163.1400     329
163.1600     312
163.1800     319
163.2000     324
163.2200     317
163.2400     252
163.2600     181
163.2800     198
163.3000     247
163.3200     283
163.3400     306
163.3600     294
163.3800     279
163.4000     317
163.4200     365
163.4400     353
163.4600     322
163.4800     313
163.5000     312
163.5200     309
163.5400     309
163.5600     329
163.5800     346
163.6000     305
163.6200     251
163.6400     250
163.6600     272
163.6800     304
163.7000     329
163.7200     299
163.7400     256
163.7600     256
163.7800     271
163.8000     268
163.8200     265
163.8400     297
163.8600     332
163.8800     314
163.9000     279
163.9200     269
163.9400     266
163.9600     248
163.9800     226
164.0000     217
164.0200     212
164.0400     202
164.0600     200
164.0800     246
164.1000     305
164.1200     324
164.1400     328
164.1600     332
164.1800     336
164.2000     342
164.2200     341
164.2400     305
164.2600     263
164.2800     263
164.3000     277
164.3200     282
164.3400     282
164.3600     271
164.3800     256
164.4000     246
164.4200     246
164.4400     289
164.4600     336
164.4800     320
164.5000     288
164.5200     304
164.5400     331
164.5600     310
164.5800     271
164.6000     237
164.6200     213
164.6400     230
164.6600     258
164.6800     251
164.7000     231
164.7200     213
164.7400     204
164.7600     240
164.7800     289
164.8000     316
164.8200     337
164.8400     370
164.8600     397
164.8800     367
164.9000     318
164.9200     282
164.9400     256
164.9600     245
164.9800     242