File: XRD_Tool/XRD_Tool/bin/Debug/LDA_sample_name_56789_Psi-35_20180622-235834.txt
141.0000     240
141.0200     272
141.0400     252
141.0600     211
141.0800     167
141.1000     131
141.1200     143
141.1400     172
141.1600     184
141.1800     193
141.2000     214
141.2200     230
141.2400     194
141.2600     148
141.2800     150
141.3000     179
141.3200     242
141.3400     299
141.3600     266
141.3800     196
141.4000     129
141.4200      88
141.4400     169
141.4600     280
141.4800     294
141.5000     264
141.5200     201
141.5400     142
141.5600     168
141.5800     226
141.6000     275
141.6200     317
141.6400     334
141.6600     338
141.6800     324
141.7000     296
141.7200     236
141.7400     177
141.7600     185
141.7800     217
141.8000     239
141.8200     257
141.8400     275
141.8600     286
141.8800     260
141.9000     217
141.9200     161
141.9400     109
141.9600     110
141.9800     142
142.0000     223
142.0200     299
142.0400     255
142.0600     181
142.0800     198
142.1000     236
142.1200     193
142.1400     142
142.1600     219
142.1800     327
142.2000     337
142.2200     301
142.2400     237
142.2600     174
142.2800     181
142.3000     204
142.3200     175
142.3400     135
142.3600     145
142.3800     176
142.4000     212
142.4200     247
142.4400     267
142.4600     275
142.4800     252
142.5000     223
142.5200     230
142.5400     246
142.5600     227
142.5800     205
142.6000     235
142.6200     274
142.6400     260
142.6600     226
142.6800     202
142.7000     189
142.7200     212
142.7400     243
142.7600     236
142.7800     211
142.8000     174
142.8200     146
142.8400     188
142.8600     250
142.8800     269
142.9000     268
142.9200     255
142.9400     240
142.9600     237
142.9800     230
143.0000     176
143.0200     121
143.0400     153
143.0600     208
143.0800     208
143.1000     198
143.1200     246
143.1400     298
143.1600     250
143.1800     173
143.2000     148
143.2200     143
143.2400     134
143.2600     137
143.2800     205
143.3000     287
143.3200     308
143.3400     293
143.3600     226
143.3800     158
143.4000     190
143.4200     245
143.4400     217
143.4600     169
143.4800     193
143.5000     241
143.5200     269
143.5400     286
143.5600     288
143.5800     276
143.6000     225
143.6200     169
143.6400     158
143.6600     165
143.6800     167
143.7000     168
143.7200     171
143.7400     176
143.7600     191
143.7800     207
143.8000     213
143.8200     217
143.8400     231
143.8600     243
143.8800     227
143.9000     210
143.9200     251
143.9400     307
143.9600     321
143.9800     315
144.0000     289
144.0200     259
144.0400     244
144.0600     241
144.0800     265
144.1000     290
144.1200     270
144.1400     236
144.1600     220
144.1800     214
144.2000     220
144.2200     232
144.2400     252
144.2600     270
144.2800     260
144.3000     235
144.3200     197
144.3400     160
144.3600     158
144.3800     171
144.4000     194
144.4200     220
144.4400     248
144.4600     264
144.4800     220
144.5000     163
144.5200     166
144.5400     193
144.5600     225
144.5800     249
144.6000     221
144.6200     186
144.6400     214
144.6600     258
144.6800     249
144.7000     229
144.7200     257
144.7400     291
144.7600     253
144.7800     196
144.8000     184
144.8200     186
144.8400     168
144.8600     156
144.8800     213
144.9000     283
144.9200     286
144.9400     270
144.9600     296
144.9800     333
145.0000     347
145.0200     353
145.0400     372
145.0600     381
145.0800     317
145.1000     238
145.1200     236
145.1400     264
145.1600     297
145.1800     326
145.2000     333
145.2200     329
145.2400     312
145.2600     298
145.2800     326
145.3000     356
145.3200     317
145.3400     272
145.3600     331
145.3800     412
145.4000     403
145.4200     354
145.4400     290
145.4600     235
145.4800     253
145.5000     295
145.5200     304
145.5400     301
145.5600     303
145.5800     305
145.6000     302
145.6200     295
145.6400     286
145.6600     285
145.6800     326
145.7000     370
145.7200     346
145.7400     304
145.7600     313
145.7800     342
145.8000     363
145.8200     380
145.8400     390
145.8600     394
145.8800     375
145.9000     348
145.9200     329
145.9400     315
145.9600     313
145.9800     312
146.0000     296
146.0200     279
146.0400     285
146.0600     308
146.0800     363
146.1000     414
146.1200     380
146.1400     322
146.1600     315
146.1800     329
146.2000     343
146.2200     352
146.2400     331
146.2600     311
146.2800     351
146.3000     398
146.3200     360
146.3400     296
146.3600     274
146.3800     272
146.4000     290
146.4200     312
146.4400     317
146.4600     311
146.4800     282
146.5000     248
146.5200     237
146.5400     239
146.5600     261
146.5800     291
146.6000     320
146.6200     336
146.6400     295
146.6600     245
146.6800     267
146.7000     305
146.7200     283
146.7400     252
146.7600     298
146.7800     366
146.8000     399
146.8200     405
146.8400     354
146.8600     286
146.8800     247
146.9000     235
146.9200     304
146.9400     388
146.9600     381
146.9800     338
147.0000     305
147.0200     283
147.0400     304
147.0600     336
147.0800     338
147.1000     322
147.1200     273
147.1400     224
147.1600     242
147.1800     277
147.2000     267
147.2200     255
147.2400     323
147.2600     405
147.2800     400
147.3000     365
147.3200     355
147.3400     352
147.3600     332
147.3800     313
147.4000     324
147.4200     344
147.4400     346
147.4600     343
147.4800     358
147.5000     375
147.5200     364
147.5400     336
147.5600     281
147.5800     229
147.6000     244
147.6200     281
147.6400     296
147.6600     298
147.6800     275
147.7000     255
147.7200     295
147.7400     349
147.7600     353
147.7800     334
147.8000     300
147.8200     271
147.8400     299
147.8600     348
147.8800     392
147.9000     425
147.9200     411
147.9400     380
147.9600     354
147.9800     328
148.0000     294
148.0200     263
148.0400     267
148.0600     283
148.0800     291
148.1000     302
148.1200     351
148.1400     404
148.1600     399
148.1800     379
148.2000     402
148.2200     429
148.2400     393
148.2600     335
148.2800     299
148.3000     276
148.3200     281
148.3400     289
148.3600     259
148.3800     229
148.4000     282
148.4200     365
148.4400     430
148.4600     472
148.4800     436
148.5000     371
148.5200     322
148.5400     291
148.5600     310
148.5800     352
148.6000     404
148.6200     442
148.6400     387
148.6600     316
148.6800     353
148.7000     413
148.7200     370
148.7400     303
148.7600     321
148.7800     361
148.8000     346
148.8200     318
148.8400     340
148.8600     367
148.8800     317
148.9000     250
148.9200     245
148.9400     265
148.9600     286
148.9800     315
149.0000     376
149.0200     430
149.0400     387
149.0600     315
149.0800     288
149.1000     285
149.1200     305
149.1400     333
149.1600     346
149.1800     343
149.2000     287
149.2200     227
149.2400     257
149.2600     316
149.2800     343
149.3000     355
149.3200     354
149.3400     349
149.3600     352
149.3800     351
149.4000     310
149.4200     267
149.4400     287
149.4600     325
149.4800     323
149.5000     307
149.5200     301
149.5400     308
149.5600     359
149.5800     417
149.6000     425
149.6200     410
149.6400     381
149.6600     354
149.6800     361
149.7000     375
149.7200     364
149.7400     346
149.7600     350
149.7800     360
149.8000     360
149.8200     359
149.8400     378
149.8600     398
149.8800     390
149.9000     367
149.9200     330
149.9400     302
149.9600     339
149.9800     388
150.0000     360
150.0200     315
150.0400     335
150.0600     377
150.0800     396
150.1000     405
150.1200     411
150.1400     408
150.1600     370
150.1800     328
150.2000     336
150.2200     367
150.2400     413
150.2600     453
150.2800     434
150.3000     398
150.3200     387
150.3400     382
150.3600     352
150.3800     330
150.4000     400
150.4200     495
150.4400     533
150.4600     546
150.4800     541
150.5000     526
150.5200     497
150.5400     463
150.5600     426
150.5800     394
150.6000     395
150.6200     415
150.6400     462
150.6600     511
150.6800     517
150.7000     507
150.7200     507
150.7400     511
150.7600     520
150.7800     537
150.8000     587
150.8200     635
150.8400     603
150.8600     542
150.8800     496
150.9000     470
150.9200     514
150.9400     579
150.9600     609
150.9800     614
151.0000     562
151.0200     502
151.0400     511
151.0600     547
151.0800     586
151.1000     624
151.1200     650
151.1400     667
151.1600     659
151.1800     635
151.2000     578
151.2200     521
151.2400     532
151.2600     562
151.2800     549
151.3000     530
151.3200     566
151.3400     605
151.3600     547
151.3800     476
151.4000     532
151.4200     616
151.4400     590
151.4600     532
151.4800     536
151.5000     560
151.5200     564
151.5400     566
151.5600     599
151.5800     633
151.6000     607
151.6200     567
151.6400     574
151.6600     599
151.6800     617
151.7000     628
151.7200     611
151.7400     600
151.7600     675
151.7800     748
151.8000     633
151.8200     483
151.8400     536
151.8600     646
151.8800     635
151.9000     590
151.9200     623
151.9400     690
151.9600     769
151.9800     834
152.0000     809
152.0200     755
152.0400     744
152.0600     747
152.0800     732
152.1000     724
152.1200     788
152.1400     860
152.1600     835
152.1800     777
152.2000     751
152.2200     750
152.2400     814
152.2600     883
152.2800     845
152.3000     774
152.3200     748
152.3400     749
152.3600     793
152.3800     843
152.4000     830
152.4200     795
152.4400     775
152.4600     783
152.4800     899
152.5000    1025
152.5200     981
152.5400     890
152.5600     904
152.5800     950
152.6000     943
152.6200     920
152.6400     922
152.6600     934
152.6800     951
152.7000     984
152.7200    1090
152.7400    1200
152.7600    1178
152.7800    1111
152.8000    1079
152.8200    1080
152.8400    1176
152.8600    1282
152.8800    1248
152.9000    1179
152.9200    1215
152.9400    1272
152.9600    1219
152.9800    1144
153.0000    1176
153.0200    1247
153.0400    1306
153.0600    1359
153.0800    1404
153.1000    1442
153.1200    1458
153.1400    1465
153.1600    1467
153.1800    1469
153.2000    1481
153.2200    1493
153.2400    1485
153.2600    1476
153.2800    1500
153.3000    1545
153.3200    1622
153.3400    1687
153.3600    1627
153.3800    1535
153.4000    1533
153.4200    1584
153.4400    1718
153.4600    1848
153.4800    1790
153.5000    1670
153.5200    1622
153.5400    1628
153.5600    1769
153.5800    1936
153.6000    1971
153.6200    1946
153.6400    1886
153.6600    1835
153.6800    1894
153.7000    1980
153.7200    1976
153.7400    1934
153.7600    1880
153.7800    1840
153.8000    1885
153.8200    1962
153.8400    2021
153.8600    2059
153.8800    2028
153.9000    1977
153.9200    1960
153.9400    1962
153.9600    1999
153.9800    2044
154.0000    2062
154.0200    2074
154.0400    2104
154.0600    2159
154.0800    2298
154.1000    2415
154.1200    2260
154.1400    2052
154.1600    2124
154.1800    2290
154.2000    2363
154.2200    2388
154.2400    2361
154.2600    2318
154.2800    2297
154.3000    2299
154.3200    2371
154.3400    2455
154.3600    2459
154.3800    2435
154.4000    2436
154.4200    2454
154.4400    2514
154.4600    2567
154.4800    2506
154.5000    2432
154.5200    2518
154.5400    2627
154.5600    2530
154.5800    2385
154.6000    2418
154.6200    2512
154.6400    2556
154.6600    2574
154.6800    2564
154.7000    2544
154.7200    2536
154.7400    2516
154.7600    2421
154.7800    2292
154.8000    2151
154.8200    2054
154.8400    2197
154.8600    2391
154.8800    2353
154.9000    2249
154.9200    2272
154.9400    2330
154.9600    2311
154.9800    2273
155.0000    2292
155.0200    2323
155.0400    2299
155.0600    2257
155.0800    2233
155.1000    2224
155.1200    2252
155.1400    2262
155.1600    2112
155.1800    1925
155.2000    1873
155.2200    1900
155.2400    2055
155.2600    2223
155.2800    2196
155.3000    2116
155.3200    2153
155.3400    2216
155.3600    2174
155.3800    2088
155.4000    1995
155.4200    1922
155.4400    1966
155.4600    2040
155.4800    2036
155.5000    2000
155.5200    1969
155.5400    1956
155.5600    2026
155.5800    2105
155.6000    2061
155.6200    1993
155.6400    2057
155.6600    2149
155.6800    2126
155.7000    2059
155.7200    2010
155.7400    1961
155.7600    1876
155.7800    1807
155.8000    1896
155.8200    2021
155.8400    2011
155.8600    1954
155.8800    1934
155.9000    1893
155.9200    1677
155.9400    1455
155.9600    1556
155.9800    1738
156.0000    1679
156.0200    1545
156.0400    1524
156.0600    1539
156.0800    1507
156.1000    1477
156.1200    1547
156.1400    1641
156.1600    1654
156.1800    1620
156.2000    1519
156.2200    1406
156.2400    1366
156.2600    1350
156.2800    1301
156.3000    1254
156.3200    1284
156.3400    1336
156.3600    1351
156.3800    1349
156.4000    1339
156.4200    1329
156.4400    1339
156.4600    1351
156.4800    1333
156.5000    1297
156.5200    1234
156.5400    1181
156.5600    1233
156.5800    1306
156.6000    1273
156.6200    1204
156.6400    1175
156.6600    1167
156.6800    1189
156.7000    1217
156.7200    1215
156.7400    1195
156.7600    1145
156.7800    1083
156.8000    1019
156.8200     966
156.8400     965
156.8600     976
156.8800     943
156.9000     903
156.9200     912
156.9400     933
156.9600     919
156.9800     899
157.0000     920
157.0200     960
157.0400    1005
157.0600    1042
157.0800    1022
157.1000     975
157.1200     903
157.1400     837
157.1600     851
157.1800     884
157.2000     847
157.2200     796
157.2400     808
157.2600     847
157.2800     890
157.3000     926
157.3200     925
157.3400     906
157.3600     870
157.3800     827
157.4000     779
157.4200     732
157.4400     695
157.4600     675
157.4800     715
157.5000     772
157.5200     791
157.5400     794
157.5600     792
157.5800     774
157.6000     687
157.6200     589
157.6400     571
157.6600     581
157.6800     570
157.7000     555
157.7200     568
157.7400     598
157.7600     656
157.7800     713
157.8000     704
157.8200     672
157.8400     660
157.8600     661
157.8800     688
157.9000     714
157.9200     675
157.9400     621
157.9600     614
157.9800     618
158.0000     587
158.0200     556
158.0400     602
158.0600     657
158.0800     607
158.1000     534
158.1200     557
158.1400     609
158.1600     608
158.1800     594
158.2000     623
158.2200     654
158.2400     610
158.2600     538
158.2800     473
158.3000     433
158.3200     503
158.3400     615
158.3600     720
158.3800     788
158.4000     685
158.4200     540
158.4400     533
158.4600     572
158.4800     564
158.5000     537
158.5200     504
158.5400     478
158.5600     503
158.5800     537
158.6000     508
158.6200     465
158.6400     475
158.6600     499
158.6800     481
158.7000     450
158.7200     429
158.7400     425
158.7600     481
158.7800     543
158.8000     512
158.8200     455
158.8400     458
158.8600     472
158.8800     429
158.9000     381
158.9200     418
158.9400     484
158.9600     517
158.9800     531
159.0000     515
159.0200     490
159.0400     480
159.0600     480
159.0800     501
159.1000     529
159.1200     544
159.1400     541
159.1600     471
159.1800     392
159.2000     400
159.2200     437
159.2400     452
159.2600     458
159.2800     459
159.3000     461
159.3200     470
159.3400     480
159.3600     483
159.3800     476
159.4000     432
159.4200     390
159.4400     428
159.4600     483
159.4800     460
159.5000     415
159.5200     418
159.5400     436
159.5600     431
159.5800     417
159.6000     401
159.6200     387
159.6400     385
159.6600     398
159.6800     466
159.7000     533
159.7200     487
159.7400     405
159.7600     378
159.7800     377
159.8000     404
159.8200     439
159.8400     456
159.8600     459
159.8800     429
159.9000     390
159.9200     376
159.9400     372
159.9600     369
159.9800     374
160.0000     411
160.0200     451
160.0400     444
160.0600     422
160.0800     417
160.1000     406
160.1200     330
160.1400     256
160.1600     322
160.1800     424
160.2000     426
160.2200     405
160.2400     469
160.2600     545
160.2800     511
160.3000     428
160.3200     318
160.3400     224
160.3600     262
160.3800     340
160.4000     360
160.4200     362
160.4400     399
160.4600     430
160.4800     366
160.5000     285
160.5200     312
160.5400     368
160.5600     351
160.5800     316
160.6000     336
160.6200     382
160.6400     446
160.6600     499
160.6800     459
160.7000     396
160.7200     411
160.7400     446
160.7600     421
160.7800     384
160.8000     402
160.8200     431
160.8400     402
160.8600     363
160.8800     392
160.9000     441
160.9200     455
160.9400     452
160.9600     432
160.9800     408
161.0000     389
161.0200     372
161.0400     350
161.0600     340
161.0800     397
161.1000     463
161.1200     442
161.1400     390
161.1600     360
161.1800     346
161.2000     372
161.2200     404
161.2400     384
161.2600     352
161.2800     358
161.3000     372
161.3200     345
161.3400     307
161.3600     299
161.3800     304
161.4000     315
161.4200     322
161.4400     293
161.4600     259
161.4800     275
161.5000     309
161.5200     334
161.5400     352
161.5600     345
161.5800     331
161.6000     329
161.6200     340
161.6400     396
161.6600     446
161.6800     374
161.7000     273
161.7200     269
161.7400     299
161.7600     307
161.7800     303
161.8000     281
161.8200     256
161.8400     254
161.8600     268
161.8800     310
161.9000     356
161.9200     359
161.9400     346
161.9600     338
161.9800     327
162.0000     293
162.0200     263
162.0400     303
162.0600     358
162.0800     353
162.1000     321
162.1200     282
162.1400     251
162.1600     274
162.1800     305
162.2000     276
162.2200     233
162.2400     247
162.2600     284
162.2800     329
162.3000     366
162.3200     348
162.3400     314
162.3600     312
162.3800     315
162.4000     285
162.4200     250
162.4400     265
162.4600     291
162.4800     279
162.5000     259
162.5200     284
162.5400     317
162.5600     303
162.5800     271
162.6000     241
162.6200     221
162.6400     249
162.6600     285
162.6800     261
162.7000     232
162.7200     298
162.7400     377
162.7600     328
162.7800     246
162.8000     255
162.8200     299
162.8400     332
162.8600     355
162.8800     356
162.9000     349
162.9200     344
162.9400     339
162.9600     332
162.9800     320
163.0000     285
163.0200     249
163.0400     253
163.0600     273
163.0800     296
163.1000     324
163.1200     374
163.1400     419
163.1600     401
163.1800     360
163.2000     335
163.2200     314
163.2400     275
163.2600     236
163.2800     232
163.3000     250
163.3200     306
163.3400     369
163.3600     385
163.3800     380
163.4000     355
163.4200     331
163.4400     344
163.4600     358
163.4800     303
163.5000     245
163.5200     306
163.5400     393
163.5600     376
163.5800     324
163.6000     299
163.6200     288
163.6400     295
163.6600     314
163.6800     357
163.7000     386
163.7200     305
163.7400     197
163.7600     179
163.7800     202
163.8000     248
163.8200     296
163.8400     304
163.8600     298
163.8800     299
163.9000     294
163.9200     247
163.9400     195
163.9600     200
163.9800     226
164.0000     247
164.0200     259
164.0400     244
164.0600     222
164.0800     215
164.1000     221
164.1200     255
164.1400     287
164.1600     244
164.1800     189
164.2000     221
164.2200     281
164.2400     313
164.2600     326
164.2800     304
164.3000     277
164.3200     295
164.3400     316
164.3600     267
164.3800     201
164.4000     193
164.4200     204
164.4400     188
164.4600     164
164.4800     149
164.5000     149
164.5200     209
164.5400     281
164.5600     293
164.5800     280
164.6000     263
164.6200     249
164.6400     254
164.6600     260
164.6800     237
164.7000     212
164.7200     232
164.7400     256
164.7600     210
164.7800     154
164.8000     188
164.8200     245
164.8400     234
164.8600     203
164.8800     210
164.9000     231
164.9200     242
164.9400     251
164.9600     267
164.9800     280