File: XRD_Tool/XRD_Tool/bin/Debug/LDA_sample_name_56789_Psi-45_20180603-122850.txt
128.0000     261
128.0400     244
128.0800     260
128.1200     237
128.1600     239
128.2000     266
128.2400     224
128.2800     244
128.3200     259
128.3600     250
128.4000     246
128.4400     233
128.4800     254
128.5200     268
128.5600     253
128.6000     267
128.6400     219
128.6800     251
128.7200     253
128.7600     244
128.8000     301
128.8400     242
128.8800     248
128.9200     253
128.9600     277
129.0000     250
129.0400     235
129.0800     247
129.1200     272
129.1600     284
129.2000     263
129.2400     259
129.2800     251
129.3200     268
129.3600     251
129.4000     280
129.4400     245
129.4800     293
129.5200     265
129.5600     265
129.6000     256
129.6400     249
129.6800     228
129.7200     238
129.7600     241
129.8000     268
129.8400     274
129.8800     246
129.9200     234
129.9600     264
130.0000     269
130.0400     271
130.0800     228
130.1200     255
130.1600     270
130.2000     265
130.2400     257
130.2800     260
130.3200     259
130.3600     258
130.4000     248
130.4400     224
130.4800     247
130.5200     249
130.5600     263
130.6000     283
130.6400     256
130.6800     252
130.7200     238
130.7600     244
130.8000     238
130.8400     240
130.8800     247
130.9200     281
130.9600     250
131.0000     260
131.0400     218
131.0800     260
131.1200     258
131.1600     275
131.2000     262
131.2400     255
131.2800     244
131.3200     274
131.3600     237
131.4000     264
131.4400     242
131.4800     245
131.5200     249
131.5600     267
131.6000     284
131.6400     282
131.6800     271
131.7200     268
131.7600     264
131.8000     244
131.8400     272
131.8800     282
131.9200     252
131.9600     249
132.0000     264
132.0400     252
132.0800     258
132.1200     230
132.1600     293
132.2000     267
132.2400     279
132.2800     259
132.3200     247
132.3600     320
132.4000     282
132.4400     284
132.4800     267
132.5200     264
132.5600     276
132.6000     280
132.6400     272
132.6800     274
132.7200     294
132.7600     270
132.8000     273
132.8400     270
132.8800     296
132.9200     247
132.9600     243
133.0000     290
133.0400     267
133.0800     258
133.1200     263
133.1600     259
133.2000     278
133.2400     285
133.2800     272
133.3200     256
133.3600     250
133.4000     263
133.4400     261
133.4800     264
133.5200     258
133.5600     267
133.6000     275
133.6400     268
133.6800     252
133.7200     279
133.7600     257
133.8000     286
133.8400     286
133.8800     271
133.9200     260
133.9600     242
134.0000     249
134.0400     284
134.0800     304
134.1200     274
134.1600     235
134.2000     266
134.2400     277
134.2800     276
134.3200     284
134.3600     265
134.4000     265
134.4400     267
134.4800     289
134.5200     271
134.5600     278
134.6000     263
134.6400     254
134.6800     264
134.7200     267
134.7600     260
134.8000     238
134.8400     259
134.8800     288
134.9200     297
134.9600     265
135.0000     269
135.0400     256
135.0800     275
135.1200     254
135.1600     259
135.2000     280
135.2400     275
135.2800     271
135.3200     242
135.3600     250
135.4000     274
135.4400     294
135.4800     288
135.5200     254
135.5600     285
135.6000     281
135.6400     299
135.6800     237
135.7200     266
135.7600     276
135.8000     292
135.8400     248
135.8800     236
135.9200     268
135.9600     261
136.0000     263
136.0400     278
136.0800     293
136.1200     265
136.1600     256
136.2000     271
136.2400     268
136.2800     239
136.3200     243
136.3600     234
136.4000     276
136.4400     255
136.4800     278
136.5200     246
136.5600     270
136.6000     282
136.6400     247
136.6800     281
136.7200     271
136.7600     264
136.8000     258
136.8400     252
136.8800     257
136.9200     255
136.9600     259
137.0000     265
137.0400     263
137.0800     277
137.1200     248
137.1600     269
137.2000     279
137.2400     274
137.2800     253
137.3200     302
137.3600     285
137.4000     271
137.4400     277
137.4800     275
137.5200     287
137.5600     284
137.6000     266
137.6400     254
137.6800     279
137.7200     278
137.7600     276
137.8000     291
137.8400     252
137.8800     279
137.9200     292
137.9600     318
138.0000     298
138.0400     290
138.0800     269
138.1200     236
138.1600     282
138.2000     262
138.2400     253
138.2800     276
138.3200     273
138.3600     283
138.4000     269
138.4400     265
138.4800     292
138.5200     286
138.5600     275
138.6000     286
138.6400     297
138.6800     274
138.7200     269
138.7600     279
138.8000     279
138.8400     279
138.8800     295
138.9200     276
138.9600     248
139.0000     255
139.0400     267
139.0800     274
139.1200     282
139.1600     264
139.2000     289
139.2400     290
139.2800     253
139.3200     247
139.3600     241
139.4000     281
139.4400     252
139.4800     278
139.5200     253
139.5600     272
139.6000     259
139.6400     282
139.6800     280
139.7200     284
139.7600     290
139.8000     294
139.8400     299
139.8800     268
139.9200     256
139.9600     250
140.0000     247
140.0400     284
140.0800     263
140.1200     248
140.1600     282
140.2000     272
140.2400     290
140.2800     285
140.3200     270
140.3600     285
140.4000     304
140.4400     290
140.4800     278
140.5200     288
140.5600     265
140.6000     290
140.6400     290
140.6800     281
140.7200     263
140.7600     275
140.8000     296
140.8400     292
140.8800     297
140.9200     263
140.9600     254
141.0000     248
141.0400     279
141.0800     276
141.1200     271
141.1600     237
141.2000     281
141.2400     263
141.2800     289
141.3200     253
141.3600     282
141.4000     264
141.4400     250
141.4800     282
141.5200     278
141.5600     295
141.6000     268
141.6400     299
141.6800     272
141.7200     276
141.7600     259
141.8000     270
141.8400     284
141.8800     258
141.9200     268
141.9600     269
142.0000     290
142.0400     269
142.0800     271
142.1200     276
142.1600     274
142.2000     264
142.2400     281
142.2800     281
142.3200     242
142.3600     270
142.4000     283
142.4400     254
142.4800     300
142.5200     247
142.5600     257
142.6000     263
142.6400     258
142.6800     298
142.7200     251
142.7600     268
142.8000     260
142.8400     303
142.8800     277
142.9200     282
142.9600     281
143.0000     291
143.0400     293
143.0800     252
143.1200     288
143.1600     277
143.2000     264
143.2400     271
143.2800     282
143.3200     251
143.3600     269
143.4000     269
143.4400     272
143.4800     277
143.5200     290
143.5600     254
143.6000     282
143.6400     258
143.6800     287
143.7200     268
143.7600     264
143.8000     234
143.8400     290
143.8800     264
143.9200     279
143.9600     291
144.0000     254
144.0400     284
144.0800     268
144.1200     266
144.1600     258
144.2000     263
144.2400     259
144.2800     305
144.3200     274
144.3600     279
144.4000     261
144.4400     283
144.4800     286
144.5200     248
144.5600     247
144.6000     262
144.6400     287
144.6800     294
144.7200     272
144.7600     270
144.8000     289
144.8400     289
144.8800     250
144.9200     290
144.9600     259
145.0000     291
145.0400     244
145.0800     299
145.1200     272
145.1600     264
145.2000     274
145.2400     242
145.2800     283
145.3200     286
145.3600     295
145.4000     260
145.4400     228
145.4800     272
145.5200     276
145.5600     255
145.6000     295
145.6400     281
145.6800     264
145.7200     277
145.7600     282
145.8000     286
145.8400     263
145.8800     300
145.9200     274
145.9600     265
146.0000     265
146.0400     242
146.0800     278
146.1200     261
146.1600     274
146.2000     255
146.2400     257
146.2800     237
146.3200     274
146.3600     250
146.4000     269
146.4400     272
146.4800     258
146.5200     271
146.5600     274
146.6000     286
146.6400     290
146.6800     270
146.7200     279
146.7600     241
146.8000     298
146.8400     264
146.8800     300
146.9200     281
146.9600     269
147.0000     255
147.0400     261
147.0800     287
147.1200     282
147.1600     270
147.2000     269
147.2400     253
147.2800     264
147.3200     276
147.3600     291
147.4000     296
147.4400     247
147.4800     242
147.5200     289
147.5600     299
147.6000     247
147.6400     250
147.6800     257
147.7200     307
147.7600     262
147.8000     272
147.8400     235
147.8800     279
147.9200     303
147.9600     264
148.0000     305
148.0400     283
148.0800     286
148.1200     280
148.1600     304
148.2000     265
148.2400     284
148.2800     311
148.3200     255
148.3600     244
148.4000     228
148.4400     291
148.4800     276
148.5200     286
148.5600     283
148.6000     251
148.6400     308
148.6800     256
148.7200     271
148.7600     309
148.8000     271
148.8400     273
148.8800     288
148.9200     277
148.9600     259
149.0000     277
149.0400     288
149.0800     296
149.1200     298
149.1600     287
149.2000     284
149.2400     266
149.2800     284
149.3200     270
149.3600     303
149.4000     304
149.4400     248
149.4800     274
149.5200     302
149.5600     272
149.6000     284
149.6400     272
149.6800     280
149.7200     272
149.7600     289
149.8000     275
149.8400     274
149.8800     265
149.9200     258
149.9600     259
150.0000     257
150.0400     262
150.0800     265
150.1200     282
150.1600     282
150.2000     285
150.2400     274
150.2800     292
150.3200     295
150.3600     290
150.4000     268
150.4400     299
150.4800     286
150.5200     291
150.5600     270
150.6000     305
150.6400     266
150.6800     304
150.7200     257
150.7600     269
150.8000     279
150.8400     255
150.8800     300
150.9200     275
150.9600     261
151.0000     272
151.0400     255
151.0800     267
151.1200     268
151.1600     256
151.2000     281
151.2400     301
151.2800     277
151.3200     274
151.3600     279
151.4000     295
151.4400     276
151.4800     281
151.5200     283
151.5600     275
151.6000     278
151.6400     277
151.6800     303
151.7200     293
151.7600     269
151.8000     299
151.8400     320
151.8800     297
151.9200     293
151.9600     282