File: XRD_Tool/XRD_Tool/bin/Debug/SDD_sample_name_01234_Psi-0_20180602-152417.txt
 145.0000       43
 145.0200       43
 145.0400       37
 145.0600       36
 145.0800       34
 145.1000       34
 145.1200       43
 145.1400       32
 145.1600       41
 145.1800       40
 145.2000       37
 145.2200       42
 145.2400       39
 145.2600       37
 145.2800       41
 145.3000       32
 145.3200       45
 145.3400       40
 145.3600       32
 145.3800       52
 145.4000       36
 145.4200       35
 145.4400       40
 145.4600       46
 145.4800       36
 145.5000       40
 145.5200       43
 145.5400       42
 145.5600       36
 145.5800       43
 145.6000       37
 145.6200       40
 145.6400       37
 145.6600       41
 145.6800       29
 145.7000       46
 145.7200       42
 145.7400       25
 145.7600       43
 145.7800       38
 145.8000       39
 145.8200       37
 145.8400       34
 145.8600       40
 145.8800       37
 145.9000       36
 145.9200       37
 145.9400       42
 145.9600       47
 145.9800       43
 146.0000       32
 146.0200       51
 146.0400       37
 146.0600       35
 146.0800       33
 146.1000       46
 146.1200       29
 146.1400       41
 146.1600       40
 146.1800       40
 146.2000       37
 146.2200       45
 146.2400       38
 146.2600       47
 146.2800       51
 146.3000       37
 146.3200       37
 146.3400       36
 146.3600       44
 146.3800       44
 146.4000       41
 146.4200       43
 146.4400       36
 146.4600       39
 146.4800       29
 146.5000       40
 146.5200       35
 146.5400       38
 146.5600       29
 146.5800       42
 146.6000       37
 146.6200       37
 146.6400       38
 146.6600       44
 146.6800       40
 146.7000       42
 146.7200       34
 146.7400       30
 146.7600       53
 146.7800       33
 146.8000       49
 146.8200       50
 146.8400       28
 146.8600       48
 146.8800       37
 146.9000       50
 146.9200       37
 146.9400       50
 146.9600       47
 146.9800       37
 147.0000       46
 147.0200       41
 147.0400       49
 147.0600       39
 147.0800       54
 147.1000       31
 147.1200       53
 147.1400       43
 147.1600       54
 147.1800       37
 147.2000       43
 147.2200       30
 147.2400       37
 147.2600       36
 147.2800       50
 147.3000       32
 147.3200       39
 147.3400       41
 147.3600       42
 147.3800       39
 147.4000       39
 147.4200       32
 147.4400       34
 147.4600       50
 147.4800       40
 147.5000       39
 147.5200       44
 147.5400       43
 147.5600       34
 147.5800       40
 147.6000       47
 147.6200       43
 147.6400       54
 147.6600       45
 147.6800       38
 147.7000       38
 147.7200       42
 147.7400       53
 147.7600       50
 147.7800       40
 147.8000       44
 147.8200       44
 147.8400       46
 147.8600       41
 147.8800       27
 147.9000       46
 147.9200       41
 147.9400       41
 147.9600       37
 147.9800       38
 148.0000       33
 148.0200       51
 148.0400       39
 148.0600       35
 148.0800       44
 148.1000       29
 148.1200       41
 148.1400       48
 148.1600       49
 148.1800       38
 148.2000       32
 148.2200       48
 148.2400       50
 148.2600       46
 148.2800       38
 148.3000       31
 148.3200       45
 148.3400       34
 148.3600       41
 148.3800       52
 148.4000       41
 148.4200       57
 148.4400       56
 148.4600       57
 148.4800       39
 148.5000       42
 148.5200       46
 148.5400       36
 148.5600       33
 148.5800       37
 148.6000       54
 148.6200       53
 148.6400       38
 148.6600       44
 148.6800       49
 148.7000       58
 148.7200       55
 148.7400       52
 148.7600       48
 148.7800       43
 148.8000       53
 148.8200       49
 148.8400       50
 148.8600       40
 148.8800       48
 148.9000       50
 148.9200       44
 148.9400       41
 148.9600       42
 148.9800       49
 149.0000       57
 149.0200       39
 149.0400       48
 149.0600       46
 149.0800       53
 149.1000       51
 149.1200       41
 149.1400       49
 149.1600       55
 149.1800       57
 149.2000       36
 149.2200       49
 149.2400       49
 149.2600       53
 149.2800       38
 149.3000       59
 149.3200       57
 149.3400       43
 149.3600       52
 149.3800       44
 149.4000       49
 149.4200       62
 149.4400       53
 149.4600       43
 149.4800       51
 149.5000       64
 149.5200       35
 149.5400       42
 149.5600       54
 149.5800       42
 149.6000       53
 149.6200       48
 149.6400       41
 149.6600       37
 149.6800       51
 149.7000       68
 149.7200       40
 149.7400       58
 149.7600       57
 149.7800       44
 149.8000       44
 149.8200       56
 149.8400       56
 149.8600       58
 149.8800       56
 149.9000       58
 149.9200       47
 149.9400       55
 149.9600       60
 149.9800       49
 150.0000       58
 150.0200       52
 150.0400       67
 150.0600       57
 150.0800       49
 150.1000       55
 150.1200       61
 150.1400       56
 150.1600       51
 150.1800       64
 150.2000       72
 150.2200       65
 150.2400       57
 150.2600       53
 150.2800       60
 150.3000       62
 150.3200       55
 150.3400       59
 150.3600       51
 150.3800       49
 150.4000       60
 150.4200       66
 150.4400       64
 150.4600       57
 150.4800       51
 150.5000       56
 150.5200       65
 150.5400       58
 150.5600       62
 150.5800       56
 150.6000       62
 150.6200       55
 150.6400       59
 150.6600       70
 150.6800       57
 150.7000       53
 150.7200       72
 150.7400       56
 150.7600       71
 150.7800       64
 150.8000       59
 150.8200       65
 150.8400       63
 150.8600       69
 150.8800       74
 150.9000       53
 150.9200       79
 150.9400       59
 150.9600       67
 150.9800       73
 151.0000       66
 151.0200       82
 151.0400       64
 151.0600       70
 151.0800       77
 151.1000       78
 151.1200       73
 151.1400       71
 151.1600       75
 151.1800       74
 151.2000      102
 151.2200       75
 151.2400       74
 151.2600       81
 151.2800       82
 151.3000       75
 151.3200       71
 151.3400       80
 151.3600       90
 151.3800       99
 151.4000       98
 151.4200       66
 151.4400       80
 151.4600       78
 151.4800       88
 151.5000       74
 151.5200       91
 151.5400       97
 151.5600       92
 151.5800       78
 151.6000       87
 151.6200       89
 151.6400       87
 151.6600      103
 151.6800       93
 151.7000       98
 151.7200       94
 151.7400       77
 151.7600      116
 151.7800      101
 151.8000      104
 151.8200       95
 151.8400      113
 151.8600      113
 151.8800       94
 151.9000       96
 151.9200      107
 151.9400      105
 151.9600       94
 151.9800       97
 152.0000       97
 152.0200       95
 152.0400      116
 152.0600       95
 152.0800      102
 152.1000      111
 152.1200      114
 152.1400      111
 152.1600      115
 152.1800      121
 152.2000      132
 152.2200      117
 152.2400      134
 152.2600      129
 152.2800      121
 152.3000      124
 152.3200      154
 152.3400      130
 152.3600      133
 152.3800      147
 152.4000      145
 152.4200      138
 152.4400      146
 152.4600      128
 152.4800      157
 152.5000      142
 152.5200      140
 152.5400      160
 152.5600      137
 152.5800      141
 152.6000      158
 152.6200      165
 152.6400      149
 152.6600      165
 152.6800      164
 152.7000      178
 152.7200      184
 152.7400      174
 152.7600      174
 152.7800      180
 152.8000      195
 152.8200      186
 152.8400      176
 152.8600      183
 152.8800      178
 152.9000      198
 152.9200      191
 152.9400      180
 152.9600      224
 152.9800      181
 153.0000      233
 153.0200      217
 153.0400      185
 153.0600      192
 153.0800      207
 153.1000      226
 153.1200      242
 153.1400      236
 153.1600      220
 153.1800      230
 153.2000      247
 153.2200      240
 153.2400      247
 153.2600      254
 153.2800      245
 153.3000      225
 153.3200      283
 153.3400      266
 153.3600      255
 153.3800      269
 153.4000      311
 153.4200      270
 153.4400      296
 153.4600      286
 153.4800      288
 153.5000      278
 153.5200      314
 153.5400      333
 153.5600      326
 153.5800      321
 153.6000      309
 153.6200      331
 153.6400      338
 153.6600      324
 153.6800      331
 153.7000      299
 153.7200      370
 153.7400      346
 153.7600      347
 153.7800      350
 153.8000      346
 153.8200      364
 153.8400      387
 153.8600      380
 153.8800      414
 153.9000      386
 153.9200      356
 153.9400      420
 153.9600      410
 153.9800      412
 154.0000      356
 154.0200      388
 154.0400      418
 154.0600      397
 154.0800      392
 154.1000      423
 154.1200      455
 154.1400      431
 154.1600      458
 154.1800      470
 154.2000      418
 154.2200      425
 154.2400      451
 154.2600      447
 154.2800      477
 154.3000      441
 154.3200      451
 154.3400      484
 154.3600      451
 154.3800      477
 154.4000      501
 154.4200      442
 154.4400      473
 154.4600      455
 154.4800      477
 154.5000      451
 154.5200      497
 154.5400      521
 154.5600      479
 154.5800      468
 154.6000      463
 154.6200      475
 154.6400      485
 154.6600      443
 154.6800      474
 154.7000      485
 154.7200      490
 154.7400      483
 154.7600      506
 154.7800      539
 154.8000      509
 154.8200      482
 154.8400      463
 154.8600      460
 154.8800      529
 154.9000      464
 154.9200      480
 154.9400      438
 154.9600      482
 154.9800      480
 155.0000      472