File: XRD_Tool/XRD_Tool/bin/Debug/SDD_sample_name_001_Psi-45_20180528-025309.txt
 150.0000       56
 150.0200       54
 150.0400       77
 150.0600       66
 150.0800       52
 150.1000       59
 150.1200       66
 150.1400       37
 150.1600       69
 150.1800       70
 150.2000       56
 150.2200       51
 150.2400       69
 150.2600       59
 150.2800       59
 150.3000       58
 150.3200       60
 150.3400       69
 150.3600       63
 150.3800       79
 150.4000       75
 150.4200       69
 150.4400       72
 150.4600       64
 150.4800       66
 150.5000       74
 150.5200       64
 150.5400       57
 150.5600       60
 150.5800       64
 150.6000       69
 150.6200       64
 150.6400       63
 150.6600       66
 150.6800       67
 150.7000       51
 150.7200       64
 150.7400       66
 150.7600       60
 150.7800       71
 150.8000       77
 150.8200       63
 150.8400       73
 150.8600       75
 150.8800       70
 150.9000       67
 150.9200       70
 150.9400       73
 150.9600       70
 150.9800       61
 151.0000       71
 151.0200       72
 151.0400       70
 151.0600       72
 151.0800       70
 151.1000       71
 151.1200       70
 151.1400       73
 151.1600       64
 151.1800       72
 151.2000       52
 151.2200       78
 151.2400       72
 151.2600       84
 151.2800       75
 151.3000       71
 151.3200       63
 151.3400       75
 151.3600       81
 151.3800       60
 151.4000       71
 151.4200       70
 151.4400       83
 151.4600       68
 151.4800       80
 151.5000       80
 151.5200       74
 151.5400       76
 151.5600       84
 151.5800       83
 151.6000       59
 151.6200       87
 151.6400       90
 151.6600       71
 151.6800       68
 151.7000       80
 151.7200       67
 151.7400       83
 151.7600       78
 151.7800       92
 151.8000       87
 151.8200       76
 151.8400      101
 151.8600       86
 151.8800       86
 151.9000       94
 151.9200       98
 151.9400       97
 151.9600       88
 151.9800       92
 152.0000       97
 152.0200       94
 152.0400       85
 152.0600      103
 152.0800       92
 152.1000       81
 152.1200       96
 152.1400       96
 152.1600       84
 152.1800      102
 152.2000       92
 152.2200       87
 152.2400       93
 152.2600       97
 152.2800       93
 152.3000       84
 152.3200      103
 152.3400       80
 152.3600       94
 152.3800       95
 152.4000      122
 152.4200      113
 152.4400      123
 152.4600      102
 152.4800      122
 152.5000      107
 152.5200      103
 152.5400       97
 152.5600      105
 152.5800      121
 152.6000      107
 152.6200      127
 152.6400      108
 152.6600      114
 152.6800      111
 152.7000      117
 152.7200      114
 152.7400      101
 152.7600      116
 152.7800      123
 152.8000      126
 152.8200      120
 152.8400      113
 152.8600      125
 152.8800      144
 152.9000      117
 152.9200      145
 152.9400      142
 152.9600      141
 152.9800      147
 153.0000      149
 153.0200      144
 153.0400      121
 153.0600      133
 153.0800      132
 153.1000      133
 153.1200      147
 153.1400      164
 153.1600      147
 153.1800      155
 153.2000      141
 153.2200      162
 153.2400      135
 153.2600      166
 153.2800      140
 153.3000      168
 153.3200      168
 153.3400      156
 153.3600      162
 153.3800      171
 153.4000      160
 153.4200      164
 153.4400      168
 153.4600      184
 153.4800      166
 153.5000      186
 153.5200      190
 153.5400      191
 153.5600      177
 153.5800      185
 153.6000      209
 153.6200      204
 153.6400      200
 153.6600      202
 153.6800      189
 153.7000      231
 153.7200      200
 153.7400      226
 153.7600      202
 153.7800      222
 153.8000      222
 153.8200      206
 153.8400      233
 153.8600      212
 153.8800      222
 153.9000      218
 153.9200      233
 153.9400      215
 153.9600      223
 153.9800      246
 154.0000      230
 154.0200      229
 154.0400      251
 154.0600      251
 154.0800      257
 154.1000      270
 154.1200      283
 154.1400      283
 154.1600      294
 154.1800      281
 154.2000      290
 154.2200      262
 154.2400      277
 154.2600      273
 154.2800      271
 154.3000      293
 154.3200      318
 154.3400      307
 154.3600      285
 154.3800      295
 154.4000      278
 154.4200      307
 154.4400      307
 154.4600      307
 154.4800      280
 154.5000      331
 154.5200      325
 154.5400      314
 154.5600      348
 154.5800      336
 154.6000      332
 154.6200      330
 154.6400      371
 154.6600      344
 154.6800      348
 154.7000      351
 154.7200      354
 154.7400      334
 154.7600      382
 154.7800      377
 154.8000      398
 154.8200      370
 154.8400      364
 154.8600      386
 154.8800      400
 154.9000      368
 154.9200      385
 154.9400      388
 154.9600      396
 154.9800      370
 155.0000      369
 155.0200      404
 155.0400      401
 155.0600      410
 155.0800      394
 155.1000      367
 155.1200      393
 155.1400      417
 155.1600      431
 155.1800      407
 155.2000      383
 155.2200      429
 155.2400      398
 155.2600      399
 155.2800      403
 155.3000      412
 155.3200      417
 155.3400      423
 155.3600      417
 155.3800      421
 155.4000      437
 155.4200      388
 155.4400      383
 155.4600      385
 155.4800      385
 155.5000      434
 155.5200      416
 155.5400      429
 155.5600      416
 155.5800      414
 155.6000      407
 155.6200      385
 155.6400      429
 155.6600      425
 155.6800      451
 155.7000      385
 155.7200      407
 155.7400      419
 155.7600      424
 155.7800      388
 155.8000      375
 155.8200      396
 155.8400      438
 155.8600      406
 155.8800      370
 155.9000      410
 155.9200      408
 155.9400      406
 155.9600      372
 155.9800      379
 156.0000      396
 156.0200      359
 156.0400      369
 156.0600      397
 156.0800      370
 156.1000      356
 156.1200      360
 156.1400      330
 156.1600      386
 156.1800      355
 156.2000      362
 156.2200      332
 156.2400      341
 156.2600      326
 156.2800      329
 156.3000      351
 156.3200      342
 156.3400      345
 156.3600      344
 156.3800      314
 156.4000      333
 156.4200      316
 156.4400      328
 156.4600      306
 156.4800      275
 156.5000      330
 156.5200      305
 156.5400      335
 156.5600      307
 156.5800      312
 156.6000      300
 156.6200      331
 156.6400      293
 156.6600      311
 156.6800      293
 156.7000      298
 156.7200      296
 156.7400      315
 156.7600      308
 156.7800      291
 156.8000      283
 156.8200      295
 156.8400      251
 156.8600      280
 156.8800      261
 156.9000      272
 156.9200      258
 156.9400      264
 156.9600      249
 156.9800      255
 157.0000      241
 157.0200      250
 157.0400      244
 157.0600      248
 157.0800      216
 157.1000      260
 157.1200      239
 157.1400      205
 157.1600      236
 157.1800      247
 157.2000      232
 157.2200      222
 157.2400      227
 157.2600      213
 157.2800      230
 157.3000      208
 157.3200      222
 157.3400      214
 157.3600      208
 157.3800      200
 157.4000      179
 157.4200      200
 157.4400      227
 157.4600      200
 157.4800      177
 157.5000      209
 157.5200      187
 157.5400      187
 157.5600      170
 157.5800      196
 157.6000      193
 157.6200      168
 157.6400      172
 157.6600      177
 157.6800      225
 157.7000      182
 157.7200      156
 157.7400      176
 157.7600      177
 157.7800      165
 157.8000      179
 157.8200      176
 157.8400      163
 157.8600      162
 157.8800      155
 157.9000      159
 157.9200      163
 157.9400      157
 157.9600      145
 157.9800      164
 158.0000      127
 158.0200      146
 158.0400      153
 158.0600      139
 158.0800      140
 158.1000      142
 158.1200      132
 158.1400      151
 158.1600      159
 158.1800      141
 158.2000      139
 158.2200      130
 158.2400      130
 158.2600      139
 158.2800      140
 158.3000      132
 158.3200      125
 158.3400      124
 158.3600      147
 158.3800      117
 158.4000      136
 158.4200      138
 158.4400      124
 158.4600      136
 158.4800      143
 158.5000      116
 158.5200      124
 158.5400      115
 158.5600      109
 158.5800      112
 158.6000      100
 158.6200      125
 158.6400      126
 158.6600      132
 158.6800      116
 158.7000       97
 158.7200      119
 158.7400      107
 158.7600      110
 158.7800      107
 158.8000       88
 158.8200       99
 158.8400       93
 158.8600      100
 158.8800      113
 158.9000       99
 158.9200      110
 158.9400      113
 158.9600      115
 158.9800      122
 159.0000      102
 159.0200      100
 159.0400       93
 159.0600       92
 159.0800      114
 159.1000      107
 159.1200      106
 159.1400       95
 159.1600       79
 159.1800       99
 159.2000      115
 159.2200       93
 159.2400      104
 159.2600       80
 159.2800      105
 159.3000       95
 159.3200       98
 159.3400       98
 159.3600       95
 159.3800       89
 159.4000       91
 159.4200       73
 159.4400       78
 159.4600       88
 159.4800      101
 159.5000       82
 159.5200       77
 159.5400      105
 159.5600       97
 159.5800      101
 159.6000       85
 159.6200       80
 159.6400       97
 159.6600       82
 159.6800       80
 159.7000       68
 159.7200       87
 159.7400       76
 159.7600       97
 159.7800       83
 159.8000       98
 159.8200       80
 159.8400       85
 159.8600       90
 159.8800       71
 159.9000       82
 159.9200       77
 159.9400       76
 159.9600       80
 159.9800       74
 160.0000       90