File: XRD_Tool/XRD_Tool/bin/Debug/SDD_sample_name_01234_Psi-15_20180602-152502.txt
 145.0000       43
 145.0200       31
 145.0400       29
 145.0600       38
 145.0800       39
 145.1000       48
 145.1200       40
 145.1400       34
 145.1600       37
 145.1800       36
 145.2000       35
 145.2200       25
 145.2400       42
 145.2600       38
 145.2800       42
 145.3000       43
 145.3200       38
 145.3400       48
 145.3600       40
 145.3800       36
 145.4000       40
 145.4200       39
 145.4400       36
 145.4600       40
 145.4800       37
 145.5000       36
 145.5200       29
 145.5400       44
 145.5600       38
 145.5800       41
 145.6000       36
 145.6200       40
 145.6400       40
 145.6600       44
 145.6800       36
 145.7000       29
 145.7200       39
 145.7400       48
 145.7600       41
 145.7800       38
 145.8000       33
 145.8200       39
 145.8400       33
 145.8600       48
 145.8800       38
 145.9000       39
 145.9200       36
 145.9400       44
 145.9600       50
 145.9800       37
 146.0000       37
 146.0200       39
 146.0400       56
 146.0600       33
 146.0800       29
 146.1000       35
 146.1200       35
 146.1400       42
 146.1600       33
 146.1800       31
 146.2000       37
 146.2200       45
 146.2400       30
 146.2600       35
 146.2800       36
 146.3000       32
 146.3200       40
 146.3400       40
 146.3600       34
 146.3800       38
 146.4000       45
 146.4200       34
 146.4400       37
 146.4600       42
 146.4800       31
 146.5000       42
 146.5200       37
 146.5400       36
 146.5600       49
 146.5800       23
 146.6000       42
 146.6200       36
 146.6400       39
 146.6600       42
 146.6800       42
 146.7000       48
 146.7200       47
 146.7400       36
 146.7600       45
 146.7800       27
 146.8000       34
 146.8200       39
 146.8400       35
 146.8600       43
 146.8800       57
 146.9000       41
 146.9200       51
 146.9400       42
 146.9600       45
 146.9800       30
 147.0000       42
 147.0200       43
 147.0400       44
 147.0600       36
 147.0800       42
 147.1000       40
 147.1200       53
 147.1400       53
 147.1600       45
 147.1800       40
 147.2000       41
 147.2200       35
 147.2400       33
 147.2600       49
 147.2800       39
 147.3000       41
 147.3200       37
 147.3400       38
 147.3600       33
 147.3800       42
 147.4000       48
 147.4200       45
 147.4400       34
 147.4600       43
 147.4800       36
 147.5000       39
 147.5200       36
 147.5400       32
 147.5600       38
 147.5800       34
 147.6000       38
 147.6200       37
 147.6400       41
 147.6600       44
 147.6800       36
 147.7000       40
 147.7200       35
 147.7400       43
 147.7600       58
 147.7800       48
 147.8000       43
 147.8200       32
 147.8400       50
 147.8600       35
 147.8800       52
 147.9000       40
 147.9200       31
 147.9400       37
 147.9600       48
 147.9800       40
 148.0000       48
 148.0200       47
 148.0400       48
 148.0600       38
 148.0800       31
 148.1000       53
 148.1200       34
 148.1400       32
 148.1600       43
 148.1800       60
 148.2000       29
 148.2200       55
 148.2400       45
 148.2600       44
 148.2800       46
 148.3000       44
 148.3200       45
 148.3400       45
 148.3600       43
 148.3800       36
 148.4000       44
 148.4200       47
 148.4400       51
 148.4600       47
 148.4800       49
 148.5000       45
 148.5200       50
 148.5400       41
 148.5600       49
 148.5800       42
 148.6000       42
 148.6200       56
 148.6400       54
 148.6600       62
 148.6800       53
 148.7000       54
 148.7200       39
 148.7400       37
 148.7600       34
 148.7800       41
 148.8000       49
 148.8200       46
 148.8400       38
 148.8600       50
 148.8800       41
 148.9000       42
 148.9200       41
 148.9400       33
 148.9600       44
 148.9800       44
 149.0000       47
 149.0200       45
 149.0400       50
 149.0600       49
 149.0800       45
 149.1000       49
 149.1200       42
 149.1400       51
 149.1600       47
 149.1800       38
 149.2000       58
 149.2200       55
 149.2400       48
 149.2600       47
 149.2800       52
 149.3000       53
 149.3200       53
 149.3400       51
 149.3600       52
 149.3800       38
 149.4000       51
 149.4200       48
 149.4400       51
 149.4600       41
 149.4800       61
 149.5000       49
 149.5200       41
 149.5400       39
 149.5600       46
 149.5800       52
 149.6000       48
 149.6200       60
 149.6400       58
 149.6600       51
 149.6800       53
 149.7000       56
 149.7200       41
 149.7400       53
 149.7600       47
 149.7800       48
 149.8000       52
 149.8200       51
 149.8400       58
 149.8600       48
 149.8800       65
 149.9000       40
 149.9200       50
 149.9400       37
 149.9600       63
 149.9800       53
 150.0000       60
 150.0200       53
 150.0400       57
 150.0600       54
 150.0800       45
 150.1000       71
 150.1200       51
 150.1400       65
 150.1600       66
 150.1800       45
 150.2000       54
 150.2200       56
 150.2400       48
 150.2600       49
 150.2800       62
 150.3000       49
 150.3200       55
 150.3400       47
 150.3600       60
 150.3800       62
 150.4000       62
 150.4200       54
 150.4400       58
 150.4600       51
 150.4800       73
 150.5000       55
 150.5200       49
 150.5400       50
 150.5600       60
 150.5800       55
 150.6000       61
 150.6200       50
 150.6400       67
 150.6600       65
 150.6800       58
 150.7000       66
 150.7200       62
 150.7400       65
 150.7600       76
 150.7800       76
 150.8000       51
 150.8200       83
 150.8400       62
 150.8600       67
 150.8800       56
 150.9000       56
 150.9200       72
 150.9400       67
 150.9600       87
 150.9800       68
 151.0000       75
 151.0200       79
 151.0400       51
 151.0600       79
 151.0800       66
 151.1000       69
 151.1200       76
 151.1400       70
 151.1600       73
 151.1800       68
 151.2000       84
 151.2200       72
 151.2400       73
 151.2600       72
 151.2800       77
 151.3000       83
 151.3200       77
 151.3400       68
 151.3600       92
 151.3800       77
 151.4000       77
 151.4200       93
 151.4400       76
 151.4600       77
 151.4800       85
 151.5000       79
 151.5200       93
 151.5400      101
 151.5600      100
 151.5800       84
 151.6000       84
 151.6200       90
 151.6400       98
 151.6600       89
 151.6800      103
 151.7000       98
 151.7200       89
 151.7400       86
 151.7600       95
 151.7800       90
 151.8000      119
 151.8200       96
 151.8400       94
 151.8600       91
 151.8800       96
 151.9000      103
 151.9200      100
 151.9400      100
 151.9600      104
 151.9800      112
 152.0000      109
 152.0200      107
 152.0400      102
 152.0600      117
 152.0800      104
 152.1000      112
 152.1200      124
 152.1400      106
 152.1600       94
 152.1800      117
 152.2000      118
 152.2200      120
 152.2400       98
 152.2600      117
 152.2800      133
 152.3000      129
 152.3200      122
 152.3400      112
 152.3600      118
 152.3800      126
 152.4000      139
 152.4200      133
 152.4400      110
 152.4600      125
 152.4800      135
 152.5000      142
 152.5200      150
 152.5400      132
 152.5600      132
 152.5800      156
 152.6000      143
 152.6200      157
 152.6400      152
 152.6600      142
 152.6800      160
 152.7000      155
 152.7200      150
 152.7400      155
 152.7600      185
 152.7800      195
 152.8000      176
 152.8200      165
 152.8400      148
 152.8600      176
 152.8800      202
 152.9000      167
 152.9200      186
 152.9400      189
 152.9600      196
 152.9800      167
 153.0000      173
 153.0200      184
 153.0400      227
 153.0600      203
 153.0800      201
 153.1000      202
 153.1200      187
 153.1400      201
 153.1600      192
 153.1800      210
 153.2000      194
 153.2200      221
 153.2400      238
 153.2600      276
 153.2800      259
 153.3000      222
 153.3200      246
 153.3400      244
 153.3600      265
 153.3800      259
 153.4000      222
 153.4200      249
 153.4400      268
 153.4600      267
 153.4800      265
 153.5000      245
 153.5200      280
 153.5400      293
 153.5600      248
 153.5800      296
 153.6000      311
 153.6200      276
 153.6400      326
 153.6600      308
 153.6800      296
 153.7000      332
 153.7200      306
 153.7400      323
 153.7600      336
 153.7800      373
 153.8000      330
 153.8200      356
 153.8400      373
 153.8600      339
 153.8800      319
 153.9000      351
 153.9200      345
 153.9400      355
 153.9600      358
 153.9800      354
 154.0000      375
 154.0200      409
 154.0400      365
 154.0600      392
 154.0800      396
 154.1000      410
 154.1200      396
 154.1400      440
 154.1600      396
 154.1800      389
 154.2000      414
 154.2200      397
 154.2400      429
 154.2600      405
 154.2800      472
 154.3000      456
 154.3200      410
 154.3400      415
 154.3600      381
 154.3800      422
 154.4000      448
 154.4200      447
 154.4400      419
 154.4600      481
 154.4800      445
 154.5000      479
 154.5200      446
 154.5400      472
 154.5600      436
 154.5800      435
 154.6000      451
 154.6200      481
 154.6400      456
 154.6600      462
 154.6800      481
 154.7000      494
 154.7200      500
 154.7400      491
 154.7600      457
 154.7800      460
 154.8000      416
 154.8200      443
 154.8400      462
 154.8600      441
 154.8800      474
 154.9000      446
 154.9200      445
 154.9400      494
 154.9600      464
 154.9800      476
 155.0000      452