File: XRD_Tool/XRD_Tool/bin/Debug/SDD_sample_name_001_Psi-0_20180528-050354.txt
 150.0000       30
 150.0200       32
 150.0400       23
 150.0600       29
 150.0800       42
 150.1000       23
 150.1200       32
 150.1400       45
 150.1600       30
 150.1800       34
 150.2000       28
 150.2200       37
 150.2400       34
 150.2600       35
 150.2800       28
 150.3000       34
 150.3200       35
 150.3400       39
 150.3600       37
 150.3800       37
 150.4000       38
 150.4200       34
 150.4400       30
 150.4600       37
 150.4800       31
 150.5000       38
 150.5200       35
 150.5400       30
 150.5600       43
 150.5800       38
 150.6000       40
 150.6200       36
 150.6400       44
 150.6600       40
 150.6800       41
 150.7000       44
 150.7200       39
 150.7400       25
 150.7600       42
 150.7800       46
 150.8000       35
 150.8200       41
 150.8400       46
 150.8600       42
 150.8800       40
 150.9000       46
 150.9200       39
 150.9400       52
 150.9600       41
 150.9800       48
 151.0000       42
 151.0200       45
 151.0400       53
 151.0600       39
 151.0800       35
 151.1000       49
 151.1200       46
 151.1400       47
 151.1600       44
 151.1800       45
 151.2000       55
 151.2200       54
 151.2400       53
 151.2600       55
 151.2800       44
 151.3000       54
 151.3200       55
 151.3400       61
 151.3600       64
 151.3800       55
 151.4000       63
 151.4200       57
 151.4400       49
 151.4600       61
 151.4800       61
 151.5000       70
 151.5200       63
 151.5400       44
 151.5600       67
 151.5800       61
 151.6000       60
 151.6200       68
 151.6400       64
 151.6600       63
 151.6800       80
 151.7000       60
 151.7200       66
 151.7400       68
 151.7600       76
 151.7800       64
 151.8000       65
 151.8200       65
 151.8400       75
 151.8600       71
 151.8800       77
 151.9000       52
 151.9200       67
 151.9400       70
 151.9600       82
 151.9800       72
 152.0000       76
 152.0200       96
 152.0400       71
 152.0600       79
 152.0800       93
 152.1000       87
 152.1200      101
 152.1400       89
 152.1600       90
 152.1800       92
 152.2000       93
 152.2200      100
 152.2400       83
 152.2600      101
 152.2800       89
 152.3000       99
 152.3200      102
 152.3400      104
 152.3600       96
 152.3800      102
 152.4000       97
 152.4200       85
 152.4400      116
 152.4600      101
 152.4800      100
 152.5000      107
 152.5200      102
 152.5400      102
 152.5600      104
 152.5800      119
 152.6000      119
 152.6200      126
 152.6400      124
 152.6600      119
 152.6800      129
 152.7000      113
 152.7200      122
 152.7400      125
 152.7600      136
 152.7800      145
 152.8000      129
 152.8200      127
 152.8400      115
 152.8600      146
 152.8800      155
 152.9000      141
 152.9200      145
 152.9400      138
 152.9600      139
 152.9800      132
 153.0000      161
 153.0200      145
 153.0400      170
 153.0600      190
 153.0800      152
 153.1000      179
 153.1200      166
 153.1400      155
 153.1600      180
 153.1800      188
 153.2000      166
 153.2200      180
 153.2400      199
 153.2600      182
 153.2800      191
 153.3000      188
 153.3200      160
 153.3400      220
 153.3600      212
 153.3800      193
 153.4000      196
 153.4200      223
 153.4400      220
 153.4600      223
 153.4800      197
 153.5000      245
 153.5200      220
 153.5400      230
 153.5600      220
 153.5800      220
 153.6000      229
 153.6200      219
 153.6400      255
 153.6600      265
 153.6800      264
 153.7000      268
 153.7200      275
 153.7400      279
 153.7600      257
 153.7800      268
 153.8000      269
 153.8200      283
 153.8400      280
 153.8600      274
 153.8800      303
 153.9000      307
 153.9200      275
 153.9400      293
 153.9600      293
 153.9800      324
 154.0000      312
 154.0200      323
 154.0400      307
 154.0600      360
 154.0800      322
 154.1000      330
 154.1200      321
 154.1400      367
 154.1600      316
 154.1800      355
 154.2000      347
 154.2200      327
 154.2400      400
 154.2600      375
 154.2800      347
 154.3000      358
 154.3200      353
 154.3400      342
 154.3600      313
 154.3800      406
 154.4000      380
 154.4200      353
 154.4400      381
 154.4600      406
 154.4800      391
 154.5000      389
 154.5200      386
 154.5400      370
 154.5600      344
 154.5800      389
 154.6000      372
 154.6200      356
 154.6400      362
 154.6600      408
 154.6800      372
 154.7000      400
 154.7200      399
 154.7400      372
 154.7600      400
 154.7800      412
 154.8000      384
 154.8200      388
 154.8400      355
 154.8600      410
 154.8800      378
 154.9000      386
 154.9200      367
 154.9400      414
 154.9600      400
 154.9800      386
 155.0000      386
 155.0200      390
 155.0400      371
 155.0600      399
 155.0800      358
 155.1000      355
 155.1200      379
 155.1400      370
 155.1600      352
 155.1800      395
 155.2000      358
 155.2200      345
 155.2400      373
 155.2600      348
 155.2800      383
 155.3000      373
 155.3200      336
 155.3400      335
 155.3600      383
 155.3800      344
 155.4000      304
 155.4200      331
 155.4400      310
 155.4600      330
 155.4800      358
 155.5000      326
 155.5200      327
 155.5400      345
 155.5600      314
 155.5800      335
 155.6000      292
 155.6200      340
 155.6400      296
 155.6600      308
 155.6800      328
 155.7000      321
 155.7200      304
 155.7400      295
 155.7600      301
 155.7800      322
 155.8000      306
 155.8200      308
 155.8400      281
 155.8600      262
 155.8800      266
 155.9000      277
 155.9200      303
 155.9400      261
 155.9600      283
 155.9800      234
 156.0000      265
 156.0200      285
 156.0400      286
 156.0600      252
 156.0800      249
 156.1000      263
 156.1200      234
 156.1400      249
 156.1600      255
 156.1800      232
 156.2000      272
 156.2200      257
 156.2400      242
 156.2600      213
 156.2800      229
 156.3000      227
 156.3200      211
 156.3400      220
 156.3600      225
 156.3800      209
 156.4000      230
 156.4200      223
 156.4400      212
 156.4600      222
 156.4800      196
 156.5000      204
 156.5200      213
 156.5400      221
 156.5600      186
 156.5800      211
 156.6000      197
 156.6200      177
 156.6400      211
 156.6600      175
 156.6800      196
 156.7000      195
 156.7200      173
 156.7400      199
 156.7600      205
 156.7800      184
 156.8000      156
 156.8200      160
 156.8400      175
 156.8600      182
 156.8800      175
 156.9000      165
 156.9200      174
 156.9400      160
 156.9600      159
 156.9800      149
 157.0000      174
 157.0200      163
 157.0400      142
 157.0600      166
 157.0800      154
 157.1000      132
 157.1200      139
 157.1400      168
 157.1600      148
 157.1800      136
 157.2000      156
 157.2200      162
 157.2400      135
 157.2600      149
 157.2800      132
 157.3000      134
 157.3200      107
 157.3400      114
 157.3600      143
 157.3800      130
 157.4000      147
 157.4200      128
 157.4400      125
 157.4600      129
 157.4800      107
 157.5000      128
 157.5200      112
 157.5400      111
 157.5600      120
 157.5800      118
 157.6000      134
 157.6200      121
 157.6400      119
 157.6600      113
 157.6800      118
 157.7000      125
 157.7200      100
 157.7400      114
 157.7600      113
 157.7800      101
 157.8000      116
 157.8200      113
 157.8400      103
 157.8600      115
 157.8800      119
 157.9000      103
 157.9200      126
 157.9400       94
 157.9600       92
 157.9800       95
 158.0000      107
 158.0200       95
 158.0400       97
 158.0600      120
 158.0800      108
 158.1000      102
 158.1200       97
 158.1400      110
 158.1600       91
 158.1800       98
 158.2000       90
 158.2200       87
 158.2400       91
 158.2600       93
 158.2800      110
 158.3000      104
 158.3200      101
 158.3400       95
 158.3600       97
 158.3800       85
 158.4000       79
 158.4200      104
 158.4400       96
 158.4600       90
 158.4800       97
 158.5000       98
 158.5200       83
 158.5400       91
 158.5600       78
 158.5800       91
 158.6000       83
 158.6200       97
 158.6400       92
 158.6600       71
 158.6800       76
 158.7000       97
 158.7200       89
 158.7400       87
 158.7600       85
 158.7800       89
 158.8000       82
 158.8200       85
 158.8400       80
 158.8600       76
 158.8800       93
 158.9000       77
 158.9200       79
 158.9400       91
 158.9600      105
 158.9800       95
 159.0000       72
 159.0200       98
 159.0400       77
 159.0600       70
 159.0800       81
 159.1000       66
 159.1200       74
 159.1400       81
 159.1600       73
 159.1800       81
 159.2000       90
 159.2200       90
 159.2400       70
 159.2600       80
 159.2800       81
 159.3000       71
 159.3200       81
 159.3400       75
 159.3600       72
 159.3800       65
 159.4000       71
 159.4200       75
 159.4400       83
 159.4600       87
 159.4800       87
 159.5000       75
 159.5200       76
 159.5400       66
 159.5600       51
 159.5800       61
 159.6000       70
 159.6200       82
 159.6400       71
 159.6600       78
 159.6800       62
 159.7000       67
 159.7200       74
 159.7400       58
 159.7600       69
 159.7800       69
 159.8000       90
 159.8200       72
 159.8400       70
 159.8600       66
 159.8800       67
 159.9000       90
 159.9200       74
 159.9400       72
 159.9600       71
 159.9800       76
 160.0000       76