File: XRD_Tool/XRD_Tool/bin/Debug/SDD_sample_name_01234_Psi-15_20180602-101230.txt
 145.0000       40
 145.0200       41
 145.0400       37
 145.0600       34
 145.0800       37
 145.1000       45
 145.1200       30
 145.1400       39
 145.1600       32
 145.1800       40
 145.2000       38
 145.2200       54
 145.2400       26
 145.2600       43
 145.2800       38
 145.3000       31
 145.3200       54
 145.3400       25
 145.3600       43
 145.3800       29
 145.4000       38
 145.4200       41
 145.4400       42
 145.4600       38
 145.4800       40
 145.5000       43
 145.5200       38
 145.5400       40
 145.5600       44
 145.5800       37
 145.6000       42
 145.6200       36
 145.6400       40
 145.6600       41
 145.6800       41
 145.7000       39
 145.7200       41
 145.7400       40
 145.7600       40
 145.7800       49
 145.8000       42
 145.8200       36
 145.8400       34
 145.8600       37
 145.8800       41
 145.9000       44
 145.9200       45
 145.9400       34
 145.9600       38
 145.9800       41
 146.0000       45
 146.0200       38
 146.0400       47
 146.0600       46
 146.0800       33
 146.1000       51
 146.1200       55
 146.1400       45
 146.1600       36
 146.1800       31
 146.2000       40
 146.2200       41
 146.2400       40
 146.2600       45
 146.2800       50
 146.3000       40
 146.3200       47
 146.3400       49
 146.3600       33
 146.3800       36
 146.4000       28
 146.4200       35
 146.4400       47
 146.4600       43
 146.4800       45
 146.5000       39
 146.5200       37
 146.5400       33
 146.5600       30
 146.5800       27
 146.6000       39
 146.6200       44
 146.6400       43
 146.6600       45
 146.6800       41
 146.7000       33
 146.7200       38
 146.7400       34
 146.7600       36
 146.7800       42
 146.8000       41
 146.8200       34
 146.8400       38
 146.8600       44
 146.8800       35
 146.9000       41
 146.9200       39
 146.9400       52
 146.9600       36
 146.9800       52
 147.0000       33
 147.0200       35
 147.0400       42
 147.0600       34
 147.0800       32
 147.1000       45
 147.1200       27
 147.1400       35
 147.1600       45
 147.1800       46
 147.2000       39
 147.2200       35
 147.2400       50
 147.2600       45
 147.2800       32
 147.3000       36
 147.3200       44
 147.3400       49
 147.3600       35
 147.3800       44
 147.4000       41
 147.4200       46
 147.4400       49
 147.4600       34
 147.4800       43
 147.5000       36
 147.5200       42
 147.5400       45
 147.5600       47
 147.5800       50
 147.6000       45
 147.6200       45
 147.6400       33
 147.6600       28
 147.6800       34
 147.7000       34
 147.7200       33
 147.7400       32
 147.7600       45
 147.7800       38
 147.8000       44
 147.8200       51
 147.8400       46
 147.8600       39
 147.8800       56
 147.9000       50
 147.9200       35
 147.9400       41
 147.9600       48
 147.9800       36
 148.0000       44
 148.0200       55
 148.0400       46
 148.0600       44
 148.0800       50
 148.1000       54
 148.1200       43
 148.1400       36
 148.1600       48
 148.1800       45
 148.2000       43
 148.2200       39
 148.2400       46
 148.2600       54
 148.2800       35
 148.3000       36
 148.3200       53
 148.3400       39
 148.3600       41
 148.3800       34
 148.4000       37
 148.4200       50
 148.4400       56
 148.4600       47
 148.4800       38
 148.5000       35
 148.5200       38
 148.5400       42
 148.5600       44
 148.5800       37
 148.6000       48
 148.6200       53
 148.6400       46
 148.6600       42
 148.6800       46
 148.7000       45
 148.7200       34
 148.7400       50
 148.7600       39
 148.7800       46
 148.8000       38
 148.8200       47
 148.8400       52
 148.8600       54
 148.8800       52
 148.9000       49
 148.9200       53
 148.9400       56
 148.9600       34
 148.9800       49
 149.0000       43
 149.0200       56
 149.0400       39
 149.0600       43
 149.0800       52
 149.1000       54
 149.1200       47
 149.1400       41
 149.1600       43
 149.1800       52
 149.2000       45
 149.2200       45
 149.2400       41
 149.2600       43
 149.2800       46
 149.3000       53
 149.3200       56
 149.3400       40
 149.3600       49
 149.3800       46
 149.4000       49
 149.4200       53
 149.4400       52
 149.4600       46
 149.4800       37
 149.5000       43
 149.5200       49
 149.5400       40
 149.5600       58
 149.5800       49
 149.6000       63
 149.6200       48
 149.6400       53
 149.6600       48
 149.6800       56
 149.7000       51
 149.7200       58
 149.7400       51
 149.7600       35
 149.7800       46
 149.8000       50
 149.8200       48
 149.8400       46
 149.8600       52
 149.8800       53
 149.9000       41
 149.9200       55
 149.9400       49
 149.9600       47
 149.9800       55
 150.0000       43
 150.0200       43
 150.0400       59
 150.0600       42
 150.0800       59
 150.1000       55
 150.1200       49
 150.1400       59
 150.1600       50
 150.1800       62
 150.2000       45
 150.2200       48
 150.2400       54
 150.2600       63
 150.2800       66
 150.3000       62
 150.3200       60
 150.3400       66
 150.3600       53
 150.3800       58
 150.4000       71
 150.4200       67
 150.4400       43
 150.4600       59
 150.4800       64
 150.5000       64
 150.5200       52
 150.5400       57
 150.5600       63
 150.5800       59
 150.6000       47
 150.6200       63
 150.6400       60
 150.6600       69
 150.6800       69
 150.7000       59
 150.7200       55
 150.7400       62
 150.7600       57
 150.7800       84
 150.8000       55
 150.8200       51
 150.8400       57
 150.8600       74
 150.8800       76
 150.9000       73
 150.9200       54
 150.9400       60
 150.9600       61
 150.9800       73
 151.0000       71
 151.0200       71
 151.0400       58
 151.0600       67
 151.0800       77
 151.1000       77
 151.1200       72
 151.1400       61
 151.1600       66
 151.1800       74
 151.2000       70
 151.2200       71
 151.2400       84
 151.2600       69
 151.2800       68
 151.3000       61
 151.3200       53
 151.3400       81
 151.3600       64
 151.3800       66
 151.4000       88
 151.4200       75
 151.4400       74
 151.4600       71
 151.4800       79
 151.5000       75
 151.5200       81
 151.5400       71
 151.5600       77
 151.5800       73
 151.6000       91
 151.6200       84
 151.6400       97
 151.6600       81
 151.6800       99
 151.7000      107
 151.7200       99
 151.7400       80
 151.7600       86
 151.7800       94
 151.8000      107
 151.8200       81
 151.8400      106
 151.8600      103
 151.8800       72
 151.9000       96
 151.9200       90
 151.9400      109
 151.9600       90
 151.9800       87
 152.0000       98
 152.0200      107
 152.0400       97
 152.0600      114
 152.0800       99
 152.1000      103
 152.1200      104
 152.1400      107
 152.1600       97
 152.1800      108
 152.2000      118
 152.2200      117
 152.2400      122
 152.2600      117
 152.2800      107
 152.3000      109
 152.3200      132
 152.3400      116
 152.3600      143
 152.3800      133
 152.4000      123
 152.4200      121
 152.4400      127
 152.4600      135
 152.4800      116
 152.5000      128
 152.5200      135
 152.5400      142
 152.5600      148
 152.5800      148
 152.6000      134
 152.6200      153
 152.6400      144
 152.6600      149
 152.6800      152
 152.7000      150
 152.7200      141
 152.7400      150
 152.7600      170
 152.7800      145
 152.8000      158
 152.8200      167
 152.8400      172
 152.8600      152
 152.8800      176
 152.9000      180
 152.9200      170
 152.9400      181
 152.9600      175
 152.9800      212
 153.0000      198
 153.0200      199
 153.0400      186
 153.0600      176
 153.0800      216
 153.1000      198
 153.1200      221
 153.1400      199
 153.1600      212
 153.1800      224
 153.2000      226
 153.2200      220
 153.2400      217
 153.2600      224
 153.2800      198
 153.3000      208
 153.3200      239
 153.3400      236
 153.3600      206
 153.3800      243
 153.4000      244
 153.4200      273
 153.4400      279
 153.4600      261
 153.4800      255
 153.5000      252
 153.5200      281
 153.5400      280
 153.5600      269
 153.5800      309
 153.6000      308
 153.6200      277
 153.6400      281
 153.6600      298
 153.6800      347
 153.7000      282
 153.7200      344
 153.7400      314
 153.7600      320
 153.7800      334
 153.8000      351
 153.8200      333
 153.8400      338
 153.8600      359
 153.8800      349
 153.9000      366
 153.9200      352
 153.9400      327
 153.9600      340
 153.9800      379
 154.0000      379
 154.0200      367
 154.0400      353
 154.0600      358
 154.0800      375
 154.1000      398
 154.1200      387
 154.1400      385
 154.1600      426
 154.1800      431
 154.2000      390
 154.2200      429
 154.2400      427
 154.2600      434
 154.2800      425
 154.3000      432
 154.3200      397
 154.3400      442
 154.3600      448
 154.3800      432
 154.4000      430
 154.4200      456
 154.4400      448
 154.4600      463
 154.4800      450
 154.5000      444
 154.5200      483
 154.5400      443
 154.5600      445
 154.5800      468
 154.6000      460
 154.6200      457
 154.6400      476
 154.6600      411
 154.6800      456
 154.7000      477
 154.7200      452
 154.7400      459
 154.7600      449
 154.7800      387
 154.8000      471
 154.8200      491
 154.8400      468
 154.8600      452
 154.8800      426
 154.9000      432
 154.9200      454
 154.9400      449
 154.9600      429
 154.9800      426
 155.0000      490