File: XRD_Tool/XRD_Tool/bin/Debug/SDD_sample_name_01234_Psi-0_20180602-104814.txt
 145.0000       42
 145.0200       29
 145.0400       43
 145.0600       42
 145.0800       47
 145.1000       30
 145.1200       44
 145.1400       33
 145.1600       50
 145.1800       36
 145.2000       35
 145.2200       41
 145.2400       35
 145.2600       35
 145.2800       33
 145.3000       34
 145.3200       32
 145.3400       38
 145.3600       46
 145.3800       40
 145.4000       39
 145.4200       40
 145.4400       43
 145.4600       45
 145.4800       34
 145.5000       37
 145.5200       34
 145.5400       33
 145.5600       42
 145.5800       34
 145.6000       41
 145.6200       35
 145.6400       35
 145.6600       42
 145.6800       33
 145.7000       45
 145.7200       38
 145.7400       38
 145.7600       39
 145.7800       51
 145.8000       49
 145.8200       38
 145.8400       36
 145.8600       32
 145.8800       33
 145.9000       28
 145.9200       42
 145.9400       47
 145.9600       41
 145.9800       40
 146.0000       52
 146.0200       45
 146.0400       33
 146.0600       30
 146.0800       34
 146.1000       56
 146.1200       33
 146.1400       40
 146.1600       31
 146.1800       33
 146.2000       39
 146.2200       46
 146.2400       28
 146.2600       48
 146.2800       45
 146.3000       35
 146.3200       43
 146.3400       30
 146.3600       47
 146.3800       52
 146.4000       41
 146.4200       40
 146.4400       41
 146.4600       47
 146.4800       27
 146.5000       47
 146.5200       32
 146.5400       35
 146.5600       39
 146.5800       29
 146.6000       41
 146.6200       44
 146.6400       31
 146.6600       53
 146.6800       44
 146.7000       38
 146.7200       34
 146.7400       45
 146.7600       35
 146.7800       27
 146.8000       39
 146.8200       39
 146.8400       39
 146.8600       37
 146.8800       37
 146.9000       39
 146.9200       41
 146.9400       37
 146.9600       48
 146.9800       36
 147.0000       45
 147.0200       43
 147.0400       43
 147.0600       33
 147.0800       49
 147.1000       31
 147.1200       44
 147.1400       40
 147.1600       39
 147.1800       36
 147.2000       40
 147.2200       22
 147.2400       29
 147.2600       34
 147.2800       63
 147.3000       50
 147.3200       35
 147.3400       50
 147.3600       42
 147.3800       35
 147.4000       44
 147.4200       48
 147.4400       49
 147.4600       46
 147.4800       37
 147.5000       42
 147.5200       54
 147.5400       55
 147.5600       47
 147.5800       48
 147.6000       40
 147.6200       38
 147.6400       54
 147.6600       50
 147.6800       25
 147.7000       37
 147.7200       50
 147.7400       41
 147.7600       31
 147.7800       48
 147.8000       44
 147.8200       54
 147.8400       47
 147.8600       52
 147.8800       37
 147.9000       49
 147.9200       38
 147.9400       37
 147.9600       58
 147.9800       37
 148.0000       41
 148.0200       45
 148.0400       36
 148.0600       53
 148.0800       33
 148.1000       39
 148.1200       42
 148.1400       44
 148.1600       42
 148.1800       54
 148.2000       50
 148.2200       31
 148.2400       47
 148.2600       48
 148.2800       38
 148.3000       35
 148.3200       45
 148.3400       36
 148.3600       55
 148.3800       48
 148.4000       40
 148.4200       36
 148.4400       59
 148.4600       40
 148.4800       48
 148.5000       39
 148.5200       47
 148.5400       39
 148.5600       43
 148.5800       50
 148.6000       43
 148.6200       40
 148.6400       56
 148.6600       32
 148.6800       42
 148.7000       53
 148.7200       51
 148.7400       48
 148.7600       53
 148.7800       47
 148.8000       37
 148.8200       50
 148.8400       48
 148.8600       43
 148.8800       57
 148.9000       45
 148.9200       39
 148.9400       39
 148.9600       41
 148.9800       47
 149.0000       57
 149.0200       37
 149.0400       49
 149.0600       37
 149.0800       49
 149.1000       43
 149.1200       43
 149.1400       45
 149.1600       57
 149.1800       47
 149.2000       47
 149.2200       43
 149.2400       42
 149.2600       43
 149.2800       51
 149.3000       41
 149.3200       59
 149.3400       49
 149.3600       52
 149.3800       58
 149.4000       38
 149.4200       53
 149.4400       54
 149.4600       66
 149.4800       43
 149.5000       47
 149.5200       53
 149.5400       55
 149.5600       52
 149.5800       49
 149.6000       51
 149.6200       48
 149.6400       59
 149.6600       47
 149.6800       60
 149.7000       40
 149.7200       51
 149.7400       44
 149.7600       50
 149.7800       56
 149.8000       49
 149.8200       51
 149.8400       57
 149.8600       58
 149.8800       61
 149.9000       52
 149.9200       54
 149.9400       47
 149.9600       55
 149.9800       64
 150.0000       46
 150.0200       49
 150.0400       56
 150.0600       50
 150.0800       62
 150.1000       47
 150.1200       62
 150.1400       64
 150.1600       47
 150.1800       66
 150.2000       60
 150.2200       59
 150.2400       60
 150.2600       54
 150.2800       48
 150.3000       46
 150.3200       62
 150.3400       54
 150.3600       76
 150.3800       50
 150.4000       55
 150.4200       50
 150.4400       64
 150.4600       70
 150.4800       78
 150.5000       60
 150.5200       63
 150.5400       60
 150.5600       73
 150.5800       58
 150.6000       53
 150.6200       67
 150.6400       63
 150.6600       65
 150.6800       67
 150.7000       64
 150.7200       62
 150.7400       74
 150.7600       60
 150.7800       59
 150.8000       66
 150.8200       84
 150.8400       72
 150.8600       80
 150.8800       63
 150.9000       65
 150.9200       82
 150.9400       82
 150.9600       68
 150.9800       71
 151.0000       51
 151.0200       63
 151.0400       69
 151.0600       66
 151.0800       65
 151.1000       78
 151.1200       69
 151.1400       59
 151.1600       66
 151.1800       81
 151.2000       68
 151.2200       72
 151.2400       85
 151.2600       74
 151.2800       85
 151.3000       81
 151.3200       70
 151.3400       68
 151.3600       84
 151.3800       96
 151.4000       91
 151.4200       69
 151.4400       93
 151.4600       73
 151.4800       88
 151.5000       92
 151.5200       82
 151.5400       76
 151.5600       96
 151.5800       96
 151.6000       78
 151.6200       92
 151.6400       77
 151.6600       95
 151.6800       74
 151.7000       97
 151.7200       83
 151.7400       90
 151.7600       91
 151.7800       94
 151.8000       97
 151.8200       92
 151.8400       90
 151.8600      110
 151.8800      109
 151.9000       79
 151.9200       91
 151.9400       99
 151.9600      114
 151.9800      102
 152.0000      123
 152.0200      118
 152.0400      109
 152.0600       96
 152.0800      118
 152.1000      105
 152.1200      104
 152.1400      105
 152.1600      140
 152.1800      128
 152.2000      120
 152.2200      122
 152.2400      102
 152.2600      116
 152.2800      118
 152.3000      138
 152.3200      126
 152.3400      134
 152.3600      135
 152.3800      132
 152.4000      136
 152.4200      137
 152.4400      144
 152.4600      117
 152.4800      141
 152.5000      127
 152.5200      144
 152.5400      173
 152.5600      147
 152.5800      159
 152.6000      154
 152.6200      180
 152.6400      154
 152.6600      147
 152.6800      181
 152.7000      152
 152.7200      187
 152.7400      162
 152.7600      170
 152.7800      165
 152.8000      182
 152.8200      150
 152.8400      166
 152.8600      181
 152.8800      189
 152.9000      172
 152.9200      210
 152.9400      214
 152.9600      215
 152.9800      202
 153.0000      193
 153.0200      213
 153.0400      203
 153.0600      221
 153.0800      239
 153.1000      219
 153.1200      248
 153.1400      249
 153.1600      229
 153.1800      220
 153.2000      248
 153.2200      243
 153.2400      258
 153.2600      256
 153.2800      226
 153.3000      241
 153.3200      267
 153.3400      251
 153.3600      266
 153.3800      262
 153.4000      266
 153.4200      277
 153.4400      282
 153.4600      283
 153.4800      275
 153.5000      301
 153.5200      307
 153.5400      310
 153.5600      289
 153.5800      294
 153.6000      345
 153.6200      324
 153.6400      304
 153.6600      293
 153.6800      328
 153.7000      321
 153.7200      319
 153.7400      351
 153.7600      375
 153.7800      331
 153.8000      376
 153.8200      368
 153.8400      349
 153.8600      393
 153.8800      383
 153.9000      358
 153.9200      442
 153.9400      375
 153.9600      405
 153.9800      398
 154.0000      387
 154.0200      381
 154.0400      406
 154.0600      399
 154.0800      410
 154.1000      434
 154.1200      417
 154.1400      458
 154.1600      467
 154.1800      444
 154.2000      425
 154.2200      451
 154.2400      434
 154.2600      445
 154.2800      432
 154.3000      475
 154.3200      473
 154.3400      461
 154.3600      468
 154.3800      464
 154.4000      466
 154.4200      463
 154.4400      490
 154.4600      482
 154.4800      472
 154.5000      468
 154.5200      471
 154.5400      469
 154.5600      474
 154.5800      505
 154.6000      487
 154.6200      497
 154.6400      493
 154.6600      490
 154.6800      497
 154.7000      511
 154.7200      517
 154.7400      444
 154.7600      521
 154.7800      480
 154.8000      526
 154.8200      448
 154.8400      471
 154.8600      438
 154.8800      468
 154.9000      462
 154.9200      456
 154.9400      442
 154.9600      520
 154.9800      429
 155.0000      460