File: XRD_Tool/XRD_Tool/bin/Debug/SDD_sample_name_01234_Psi-30_20180602-101314.txt
 145.0000       24
 145.0200       35
 145.0400       39
 145.0600       39
 145.0800       42
 145.1000       35
 145.1200       34
 145.1400       43
 145.1600       34
 145.1800       50
 145.2000       41
 145.2200       37
 145.2400       34
 145.2600       32
 145.2800       36
 145.3000       33
 145.3200       40
 145.3400       37
 145.3600       44
 145.3800       30
 145.4000       28
 145.4200       34
 145.4400       36
 145.4600       36
 145.4800       32
 145.5000       29
 145.5200       51
 145.5400       29
 145.5600       39
 145.5800       36
 145.6000       40
 145.6200       51
 145.6400       27
 145.6600       38
 145.6800       37
 145.7000       39
 145.7200       38
 145.7400       33
 145.7600       36
 145.7800       24
 145.8000       48
 145.8200       28
 145.8400       38
 145.8600       37
 145.8800       40
 145.9000       38
 145.9200       44
 145.9400       39
 145.9600       30
 145.9800       45
 146.0000       42
 146.0200       36
 146.0400       31
 146.0600       40
 146.0800       48
 146.1000       38
 146.1200       45
 146.1400       40
 146.1600       32
 146.1800       36
 146.2000       54
 146.2200       36
 146.2400       27
 146.2600       40
 146.2800       50
 146.3000       20
 146.3200       43
 146.3400       32
 146.3600       37
 146.3800       29
 146.4000       42
 146.4200       59
 146.4400       40
 146.4600       41
 146.4800       38
 146.5000       39
 146.5200       25
 146.5400       31
 146.5600       27
 146.5800       44
 146.6000       45
 146.6200       41
 146.6400       28
 146.6600       46
 146.6800       40
 146.7000       23
 146.7200       34
 146.7400       37
 146.7600       35
 146.7800       34
 146.8000       40
 146.8200       47
 146.8400       22
 146.8600       34
 146.8800       38
 146.9000       26
 146.9200       37
 146.9400       30
 146.9600       42
 146.9800       50
 147.0000       37
 147.0200       28
 147.0400       33
 147.0600       32
 147.0800       44
 147.1000       47
 147.1200       39
 147.1400       40
 147.1600       40
 147.1800       41
 147.2000       41
 147.2200       49
 147.2400       46
 147.2600       40
 147.2800       37
 147.3000       43
 147.3200       40
 147.3400       47
 147.3600       38
 147.3800       40
 147.4000       48
 147.4200       37
 147.4400       37
 147.4600       47
 147.4800       33
 147.5000       38
 147.5200       45
 147.5400       35
 147.5600       31
 147.5800       32
 147.6000       37
 147.6200       42
 147.6400       50
 147.6600       38
 147.6800       37
 147.7000       40
 147.7200       41
 147.7400       47
 147.7600       42
 147.7800       30
 147.8000       47
 147.8200       50
 147.8400       37
 147.8600       40
 147.8800       40
 147.9000       41
 147.9200       43
 147.9400       44
 147.9600       33
 147.9800       46
 148.0000       37
 148.0200       35
 148.0400       41
 148.0600       52
 148.0800       49
 148.1000       49
 148.1200       39
 148.1400       39
 148.1600       39
 148.1800       33
 148.2000       38
 148.2200       29
 148.2400       41
 148.2600       56
 148.2800       35
 148.3000       36
 148.3200       54
 148.3400       51
 148.3600       31
 148.3800       49
 148.4000       44
 148.4200       49
 148.4400       35
 148.4600       44
 148.4800       48
 148.5000       57
 148.5200       37
 148.5400       43
 148.5600       43
 148.5800       36
 148.6000       27
 148.6200       34
 148.6400       43
 148.6600       48
 148.6800       39
 148.7000       46
 148.7200       49
 148.7400       42
 148.7600       48
 148.7800       47
 148.8000       42
 148.8200       41
 148.8400       47
 148.8600       37
 148.8800       48
 148.9000       37
 148.9200       40
 148.9400       46
 148.9600       44
 148.9800       40
 149.0000       40
 149.0200       48
 149.0400       35
 149.0600       42
 149.0800       45
 149.1000       42
 149.1200       44
 149.1400       48
 149.1600       48
 149.1800       48
 149.2000       44
 149.2200       45
 149.2400       51
 149.2600       47
 149.2800       41
 149.3000       48
 149.3200       50
 149.3400       52
 149.3600       33
 149.3800       47
 149.4000       51
 149.4200       53
 149.4400       36
 149.4600       38
 149.4800       46
 149.5000       47
 149.5200       44
 149.5400       49
 149.5600       50
 149.5800       53
 149.6000       43
 149.6200       46
 149.6400       57
 149.6600       45
 149.6800       52
 149.7000       56
 149.7200       51
 149.7400       62
 149.7600       49
 149.7800       49
 149.8000       37
 149.8200       43
 149.8400       35
 149.8600       42
 149.8800       49
 149.9000       48
 149.9200       36
 149.9400       38
 149.9600       53
 149.9800       40
 150.0000       42
 150.0200       54
 150.0400       51
 150.0600       43
 150.0800       41
 150.1000       45
 150.1200       42
 150.1400       63
 150.1600       61
 150.1800       49
 150.2000       53
 150.2200       52
 150.2400       46
 150.2600       35
 150.2800       51
 150.3000       50
 150.3200       50
 150.3400       60
 150.3600       53
 150.3800       69
 150.4000       40
 150.4200       63
 150.4400       52
 150.4600       51
 150.4800       59
 150.5000       56
 150.5200       59
 150.5400       59
 150.5600       52
 150.5800       51
 150.6000       48
 150.6200       68
 150.6400       48
 150.6600       52
 150.6800       63
 150.7000       61
 150.7200       51
 150.7400       53
 150.7600       57
 150.7800       56
 150.8000       51
 150.8200       68
 150.8400       59
 150.8600       72
 150.8800       46
 150.9000       73
 150.9200       83
 150.9400       67
 150.9600       54
 150.9800       67
 151.0000       63
 151.0200       65
 151.0400       48
 151.0600       50
 151.0800       61
 151.1000       71
 151.1200       73
 151.1400       69
 151.1600       55
 151.1800       73
 151.2000       65
 151.2200       66
 151.2400       60
 151.2600       57
 151.2800       66
 151.3000       72
 151.3200       68
 151.3400       79
 151.3600       55
 151.3800       63
 151.4000       69
 151.4200       57
 151.4400       72
 151.4600       69
 151.4800       59
 151.5000       67
 151.5200       82
 151.5400       87
 151.5600       63
 151.5800       74
 151.6000       83
 151.6200       78
 151.6400       65
 151.6600       84
 151.6800       65
 151.7000       77
 151.7200       91
 151.7400       90
 151.7600       84
 151.7800       68
 151.8000       79
 151.8200       71
 151.8400       67
 151.8600       87
 151.8800       86
 151.9000       92
 151.9200       90
 151.9400       99
 151.9600       90
 151.9800       84
 152.0000       87
 152.0200       80
 152.0400       91
 152.0600       93
 152.0800       97
 152.1000       87
 152.1200      100
 152.1400       79
 152.1600       96
 152.1800       90
 152.2000       99
 152.2200       99
 152.2400       96
 152.2600      110
 152.2800       86
 152.3000       91
 152.3200      109
 152.3400      122
 152.3600      115
 152.3800       98
 152.4000      108
 152.4200      119
 152.4400      106
 152.4600      111
 152.4800      105
 152.5000      107
 152.5200      130
 152.5400      131
 152.5600      118
 152.5800      113
 152.6000      117
 152.6200      137
 152.6400      115
 152.6600       94
 152.6800      103
 152.7000      141
 152.7200      127
 152.7400      125
 152.7600      141
 152.7800      142
 152.8000      150
 152.8200      120
 152.8400      131
 152.8600      123
 152.8800      140
 152.9000      127
 152.9200      138
 152.9400      159
 152.9600      136
 152.9800      149
 153.0000      140
 153.0200      155
 153.0400      175
 153.0600      170
 153.0800      185
 153.1000      164
 153.1200      188
 153.1400      189
 153.1600      161
 153.1800      196
 153.2000      178
 153.2200      170
 153.2400      176
 153.2600      194
 153.2800      189
 153.3000      179
 153.3200      199
 153.3400      219
 153.3600      185
 153.3800      187
 153.4000      211
 153.4200      224
 153.4400      220
 153.4600      229
 153.4800      201
 153.5000      219
 153.5200      201
 153.5400      212
 153.5600      236
 153.5800      251
 153.6000      205
 153.6200      261
 153.6400      236
 153.6600      276
 153.6800      239
 153.7000      241
 153.7200      257
 153.7400      246
 153.7600      254
 153.7800      249
 153.8000      289
 153.8200      299
 153.8400      245
 153.8600      264
 153.8800      266
 153.9000      305
 153.9200      320
 153.9400      286
 153.9600      280
 153.9800      312
 154.0000      322
 154.0200      331
 154.0400      331
 154.0600      294
 154.0800      309
 154.1000      350
 154.1200      321
 154.1400      315
 154.1600      341
 154.1800      331
 154.2000      354
 154.2200      315
 154.2400      343
 154.2600      335
 154.2800      361
 154.3000      356
 154.3200      350
 154.3400      352
 154.3600      340
 154.3800      357
 154.4000      388
 154.4200      348
 154.4400      415
 154.4600      408
 154.4800      354
 154.5000      370
 154.5200      366
 154.5400      385
 154.5600      407
 154.5800      413
 154.6000      386
 154.6200      383
 154.6400      399
 154.6600      407
 154.6800      388
 154.7000      399
 154.7200      405
 154.7400      400
 154.7600      415
 154.7800      397
 154.8000      459
 154.8200      403
 154.8400      433
 154.8600      427
 154.8800      387
 154.9000      408
 154.9200      415
 154.9400      407
 154.9600      479
 154.9800      417
 155.0000      419