File: XRD_Tool/XRD_Tool/bin/Debug/SDD_sample_name_01234_Psi-0_20180602-103141.txt
 145.0000       30
 145.0200       32
 145.0400       37
 145.0600       50
 145.0800       40
 145.1000       40
 145.1200       41
 145.1400       49
 145.1600       31
 145.1800       29
 145.2000       42
 145.2200       32
 145.2400       41
 145.2600       44
 145.2800       43
 145.3000       29
 145.3200       36
 145.3400       56
 145.3600       36
 145.3800       51
 145.4000       33
 145.4200       32
 145.4400       37
 145.4600       42
 145.4800       48
 145.5000       45
 145.5200       39
 145.5400       55
 145.5600       30
 145.5800       36
 145.6000       34
 145.6200       49
 145.6400       34
 145.6600       40
 145.6800       38
 145.7000       38
 145.7200       37
 145.7400       42
 145.7600       49
 145.7800       39
 145.8000       47
 145.8200       30
 145.8400       32
 145.8600       51
 145.8800       32
 145.9000       31
 145.9200       29
 145.9400       33
 145.9600       44
 145.9800       33
 146.0000       44
 146.0200       49
 146.0400       51
 146.0600       58
 146.0800       48
 146.1000       35
 146.1200       43
 146.1400       48
 146.1600       48
 146.1800       38
 146.2000       42
 146.2200       28
 146.2400       39
 146.2600       40
 146.2800       40
 146.3000       56
 146.3200       43
 146.3400       37
 146.3600       45
 146.3800       45
 146.4000       37
 146.4200       46
 146.4400       40
 146.4600       52
 146.4800       38
 146.5000       35
 146.5200       40
 146.5400       39
 146.5600       42
 146.5800       33
 146.6000       33
 146.6200       33
 146.6400       34
 146.6600       37
 146.6800       35
 146.7000       33
 146.7200       51
 146.7400       38
 146.7600       46
 146.7800       51
 146.8000       43
 146.8200       40
 146.8400       33
 146.8600       38
 146.8800       30
 146.9000       22
 146.9200       40
 146.9400       41
 146.9600       31
 146.9800       36
 147.0000       40
 147.0200       36
 147.0400       50
 147.0600       46
 147.0800       34
 147.1000       38
 147.1200       47
 147.1400       48
 147.1600       43
 147.1800       39
 147.2000       34
 147.2200       37
 147.2400       41
 147.2600       39
 147.2800       35
 147.3000       44
 147.3200       41
 147.3400       43
 147.3600       44
 147.3800       50
 147.4000       51
 147.4200       46
 147.4400       35
 147.4600       34
 147.4800       38
 147.5000       41
 147.5200       49
 147.5400       47
 147.5600       46
 147.5800       51
 147.6000       40
 147.6200       33
 147.6400       47
 147.6600       41
 147.6800       40
 147.7000       40
 147.7200       55
 147.7400       44
 147.7600       40
 147.7800       32
 147.8000       43
 147.8200       43
 147.8400       47
 147.8600       39
 147.8800       50
 147.9000       42
 147.9200       42
 147.9400       42
 147.9600       52
 147.9800       34
 148.0000       51
 148.0200       35
 148.0400       58
 148.0600       35
 148.0800       44
 148.1000       46
 148.1200       43
 148.1400       42
 148.1600       40
 148.1800       46
 148.2000       55
 148.2200       39
 148.2400       39
 148.2600       35
 148.2800       41
 148.3000       68
 148.3200       43
 148.3400       43
 148.3600       37
 148.3800       43
 148.4000       56
 148.4200       54
 148.4400       39
 148.4600       40
 148.4800       42
 148.5000       57
 148.5200       37
 148.5400       47
 148.5600       44
 148.5800       37
 148.6000       38
 148.6200       46
 148.6400       46
 148.6600       49
 148.6800       49
 148.7000       52
 148.7200       36
 148.7400       45
 148.7600       45
 148.7800       44
 148.8000       36
 148.8200       29
 148.8400       52
 148.8600       47
 148.8800       37
 148.9000       46
 148.9200       51
 148.9400       34
 148.9600       47
 148.9800       39
 149.0000       44
 149.0200       44
 149.0400       54
 149.0600       52
 149.0800       35
 149.1000       65
 149.1200       53
 149.1400       50
 149.1600       41
 149.1800       55
 149.2000       42
 149.2200       48
 149.2400       38
 149.2600       57
 149.2800       55
 149.3000       40
 149.3200       43
 149.3400       46
 149.3600       52
 149.3800       48
 149.4000       55
 149.4200       46
 149.4400       49
 149.4600       51
 149.4800       49
 149.5000       60
 149.5200       44
 149.5400       48
 149.5600       46
 149.5800       43
 149.6000       45
 149.6200       52
 149.6400       52
 149.6600       47
 149.6800       52
 149.7000       49
 149.7200       44
 149.7400       44
 149.7600       47
 149.7800       58
 149.8000       53
 149.8200       50
 149.8400       50
 149.8600       70
 149.8800       57
 149.9000       65
 149.9200       52
 149.9400       48
 149.9600       48
 149.9800       60
 150.0000       47
 150.0200       68
 150.0400       44
 150.0600       56
 150.0800       50
 150.1000       71
 150.1200       57
 150.1400       48
 150.1600       60
 150.1800       44
 150.2000       63
 150.2200       65
 150.2400       59
 150.2600       50
 150.2800       56
 150.3000       45
 150.3200       69
 150.3400       68
 150.3600       69
 150.3800       42
 150.4000       68
 150.4200       59
 150.4400       60
 150.4600       68
 150.4800       56
 150.5000       74
 150.5200       78
 150.5400       69
 150.5600       57
 150.5800       62
 150.6000       62
 150.6200       65
 150.6400       60
 150.6600       57
 150.6800       71
 150.7000       54
 150.7200       59
 150.7400       63
 150.7600       46
 150.7800       63
 150.8000       79
 150.8200       63
 150.8400       56
 150.8600       71
 150.8800       63
 150.9000       70
 150.9200       71
 150.9400       74
 150.9600       54
 150.9800       68
 151.0000       60
 151.0200       76
 151.0400       66
 151.0600       67
 151.0800       70
 151.1000       68
 151.1200       54
 151.1400       63
 151.1600       74
 151.1800       80
 151.2000       81
 151.2200       81
 151.2400       79
 151.2600       81
 151.2800       83
 151.3000       93
 151.3200       87
 151.3400       88
 151.3600       82
 151.3800       84
 151.4000       85
 151.4200       93
 151.4400       76
 151.4600       72
 151.4800       84
 151.5000      111
 151.5200       99
 151.5400       64
 151.5600       82
 151.5800       83
 151.6000       87
 151.6200       80
 151.6400      101
 151.6600       80
 151.6800      116
 151.7000       82
 151.7200       97
 151.7400       83
 151.7600      109
 151.7800      116
 151.8000      104
 151.8200       95
 151.8400      121
 151.8600       83
 151.8800      124
 151.9000       97
 151.9200      107
 151.9400       90
 151.9600      104
 151.9800      103
 152.0000      102
 152.0200       97
 152.0400      108
 152.0600       90
 152.0800      120
 152.1000      109
 152.1200      129
 152.1400      111
 152.1600      126
 152.1800      127
 152.2000      108
 152.2200      134
 152.2400      114
 152.2600      134
 152.2800      118
 152.3000      130
 152.3200      112
 152.3400      132
 152.3600      146
 152.3800      133
 152.4000      141
 152.4200      163
 152.4400      146
 152.4600      140
 152.4800      151
 152.5000      182
 152.5200      155
 152.5400      138
 152.5600      133
 152.5800      163
 152.6000      128
 152.6200      192
 152.6400      148
 152.6600      151
 152.6800      159
 152.7000      172
 152.7200      163
 152.7400      178
 152.7600      179
 152.7800      171
 152.8000      191
 152.8200      185
 152.8400      180
 152.8600      187
 152.8800      174
 152.9000      220
 152.9200      179
 152.9400      183
 152.9600      168
 152.9800      205
 153.0000      207
 153.0200      209
 153.0400      213
 153.0600      206
 153.0800      216
 153.1000      235
 153.1200      197
 153.1400      214
 153.1600      256
 153.1800      226
 153.2000      246
 153.2200      235
 153.2400      216
 153.2600      232
 153.2800      255
 153.3000      248
 153.3200      282
 153.3400      284
 153.3600      249
 153.3800      294
 153.4000      261
 153.4200      298
 153.4400      266
 153.4600      287
 153.4800      291
 153.5000      282
 153.5200      305
 153.5400      326
 153.5600      286
 153.5800      319
 153.6000      325
 153.6200      313
 153.6400      315
 153.6600      327
 153.6800      365
 153.7000      329
 153.7200      357
 153.7400      330
 153.7600      365
 153.7800      363
 153.8000      379
 153.8200      375
 153.8400      353
 153.8600      371
 153.8800      368
 153.9000      380
 153.9200      392
 153.9400      341
 153.9600      413
 153.9800      386
 154.0000      418
 154.0200      411
 154.0400      418
 154.0600      449
 154.0800      426
 154.1000      435
 154.1200      435
 154.1400      454
 154.1600      429
 154.1800      445
 154.2000      421
 154.2200      452
 154.2400      458
 154.2600      454
 154.2800      424
 154.3000      490
 154.3200      438
 154.3400      454
 154.3600      462
 154.3800      453
 154.4000      452
 154.4200      434
 154.4400      471
 154.4600      445
 154.4800      486
 154.5000      468
 154.5200      514
 154.5400      460
 154.5600      491
 154.5800      511
 154.6000      471
 154.6200      481
 154.6400      493
 154.6600      492
 154.6800      492
 154.7000      473
 154.7200      453
 154.7400      503
 154.7600      482
 154.7800      463
 154.8000      453
 154.8200      473
 154.8400      489
 154.8600      464
 154.8800      443
 154.9000      428
 154.9200      475
 154.9400      483
 154.9600      477
 154.9800      497
 155.0000      469