File: XRD_Tool/XRD_Tool/bin/Debug/SDD_sample_name_001_Psi-45_20180528-050607.txt
 150.0000       68
 150.0200       56
 150.0400       73
 150.0600       73
 150.0800       58
 150.1000       56
 150.1200       58
 150.1400       68
 150.1600       62
 150.1800       67
 150.2000       66
 150.2200       62
 150.2400       61
 150.2600       72
 150.2800       54
 150.3000       64
 150.3200       76
 150.3400       66
 150.3600       71
 150.3800       56
 150.4000       66
 150.4200       66
 150.4400       54
 150.4600       63
 150.4800       69
 150.5000       58
 150.5200       61
 150.5400       70
 150.5600       76
 150.5800       66
 150.6000       78
 150.6200       79
 150.6400       62
 150.6600       61
 150.6800       65
 150.7000       76
 150.7200       65
 150.7400       65
 150.7600       79
 150.7800       69
 150.8000       70
 150.8200       80
 150.8400       82
 150.8600       61
 150.8800       80
 150.9000       68
 150.9200       68
 150.9400       77
 150.9600       65
 150.9800       70
 151.0000       59
 151.0200       75
 151.0400       79
 151.0600       64
 151.0800       71
 151.1000       71
 151.1200       83
 151.1400       77
 151.1600       72
 151.1800       74
 151.2000       73
 151.2200       61
 151.2400       91
 151.2600       70
 151.2800       73
 151.3000       87
 151.3200       71
 151.3400       76
 151.3600       62
 151.3800       63
 151.4000       79
 151.4200      103
 151.4400       81
 151.4600       90
 151.4800       71
 151.5000       71
 151.5200       84
 151.5400       84
 151.5600       71
 151.5800       89
 151.6000       75
 151.6200       88
 151.6400       77
 151.6600       75
 151.6800       83
 151.7000       93
 151.7200       91
 151.7400       97
 151.7600       92
 151.7800       87
 151.8000       88
 151.8200       99
 151.8400       91
 151.8600       73
 151.8800       77
 151.9000       81
 151.9200       78
 151.9400       94
 151.9600      100
 151.9800      101
 152.0000       76
 152.0200       75
 152.0400       89
 152.0600       90
 152.0800      102
 152.1000       89
 152.1200       92
 152.1400      105
 152.1600      101
 152.1800      103
 152.2000      106
 152.2200       85
 152.2400      106
 152.2600      101
 152.2800      105
 152.3000       98
 152.3200      106
 152.3400       99
 152.3600      100
 152.3800      105
 152.4000      104
 152.4200       96
 152.4400      112
 152.4600      116
 152.4800      112
 152.5000      125
 152.5200      127
 152.5400      109
 152.5600      120
 152.5800      118
 152.6000      106
 152.6200      118
 152.6400      106
 152.6600      135
 152.6800      122
 152.7000      133
 152.7200      116
 152.7400      139
 152.7600      135
 152.7800      117
 152.8000      143
 152.8200      130
 152.8400      123
 152.8600      121
 152.8800      123
 152.9000      123
 152.9200      130
 152.9400      137
 152.9600      137
 152.9800      138
 153.0000      130
 153.0200      148
 153.0400      142
 153.0600      141
 153.0800      110
 153.1000      153
 153.1200      152
 153.1400      147
 153.1600      143
 153.1800      160
 153.2000      151
 153.2200      167
 153.2400      169
 153.2600      162
 153.2800      151
 153.3000      126
 153.3200      153
 153.3400      176
 153.3600      166
 153.3800      165
 153.4000      187
 153.4200      177
 153.4400      176
 153.4600      212
 153.4800      169
 153.5000      192
 153.5200      173
 153.5400      181
 153.5600      196
 153.5800      215
 153.6000      216
 153.6200      195
 153.6400      197
 153.6600      198
 153.6800      180
 153.7000      193
 153.7200      193
 153.7400      212
 153.7600      202
 153.7800      203
 153.8000      193
 153.8200      221
 153.8400      236
 153.8600      246
 153.8800      208
 153.9000      206
 153.9200      224
 153.9400      235
 153.9600      219
 153.9800      239
 154.0000      255
 154.0200      268
 154.0400      252
 154.0600      245
 154.0800      260
 154.1000      241
 154.1200      251
 154.1400      285
 154.1600      275
 154.1800      271
 154.2000      286
 154.2200      303
 154.2400      279
 154.2600      293
 154.2800      282
 154.3000      291
 154.3200      317
 154.3400      303
 154.3600      288
 154.3800      294
 154.4000      315
 154.4200      304
 154.4400      308
 154.4600      324
 154.4800      322
 154.5000      313
 154.5200      316
 154.5400      328
 154.5600      305
 154.5800      340
 154.6000      371
 154.6200      334
 154.6400      335
 154.6600      337
 154.6800      347
 154.7000      322
 154.7200      360
 154.7400      306
 154.7600      399
 154.7800      352
 154.8000      357
 154.8200      411
 154.8400      360
 154.8600      388
 154.8800      387
 154.9000      395
 154.9200      389
 154.9400      428
 154.9600      388
 154.9800      407
 155.0000      383
 155.0200      379
 155.0400      389
 155.0600      368
 155.0800      384
 155.1000      374
 155.1200      396
 155.1400      392
 155.1600      364
 155.1800      372
 155.2000      396
 155.2200      430
 155.2400      413
 155.2600      431
 155.2800      441
 155.3000      418
 155.3200      388
 155.3400      426
 155.3600      414
 155.3800      403
 155.4000      430
 155.4200      405
 155.4400      393
 155.4600      401
 155.4800      392
 155.5000      414
 155.5200      421
 155.5400      404
 155.5600      403
 155.5800      401
 155.6000      374
 155.6200      393
 155.6400      432
 155.6600      412
 155.6800      379
 155.7000      412
 155.7200      377
 155.7400      380
 155.7600      391
 155.7800      376
 155.8000      409
 155.8200      394
 155.8400      366
 155.8600      412
 155.8800      433
 155.9000      403
 155.9200      416
 155.9400      399
 155.9600      386
 155.9800      399
 156.0000      367
 156.0200      364
 156.0400      381
 156.0600      375
 156.0800      380
 156.1000      383
 156.1200      359
 156.1400      364
 156.1600      370
 156.1800      354
 156.2000      334
 156.2200      364
 156.2400      368
 156.2600      364
 156.2800      362
 156.3000      347
 156.3200      337
 156.3400      348
 156.3600      344
 156.3800      325
 156.4000      346
 156.4200      360
 156.4400      331
 156.4600      328
 156.4800      303
 156.5000      321
 156.5200      322
 156.5400      328
 156.5600      313
 156.5800      295
 156.6000      272
 156.6200      303
 156.6400      282
 156.6600      268
 156.6800      251
 156.7000      267
 156.7200      283
 156.7400      297
 156.7600      276
 156.7800      280
 156.8000      283
 156.8200      268
 156.8400      283
 156.8600      256
 156.8800      257
 156.9000      262
 156.9200      217
 156.9400      222
 156.9600      259
 156.9800      240
 157.0000      248
 157.0200      249
 157.0400      243
 157.0600      255
 157.0800      231
 157.1000      244
 157.1200      230
 157.1400      259
 157.1600      227
 157.1800      231
 157.2000      220
 157.2200      245
 157.2400      229
 157.2600      258
 157.2800      211
 157.3000      213
 157.3200      211
 157.3400      216
 157.3600      210
 157.3800      186
 157.4000      197
 157.4200      197
 157.4400      181
 157.4600      201
 157.4800      225
 157.5000      192
 157.5200      176
 157.5400      210
 157.5600      198
 157.5800      180
 157.6000      168
 157.6200      170
 157.6400      175
 157.6600      175
 157.6800      167
 157.7000      169
 157.7200      169
 157.7400      171
 157.7600      167
 157.7800      203
 157.8000      172
 157.8200      156
 157.8400      161
 157.8600      171
 157.8800      177
 157.9000      166
 157.9200      158
 157.9400      134
 157.9600      143
 157.9800      129
 158.0000      157
 158.0200      148
 158.0400      165
 158.0600      169
 158.0800      147
 158.1000      132
 158.1200      138
 158.1400      138
 158.1600      143
 158.1800      150
 158.2000      150
 158.2200      133
 158.2400      121
 158.2600      131
 158.2800      142
 158.3000      152
 158.3200      140
 158.3400      135
 158.3600      140
 158.3800      132
 158.4000      118
 158.4200      132
 158.4400      116
 158.4600      103
 158.4800      116
 158.5000      112
 158.5200      122
 158.5400       98
 158.5600      128
 158.5800      132
 158.6000      115
 158.6200      124
 158.6400      129
 158.6600      129
 158.6800      117
 158.7000      114
 158.7200      106
 158.7400      114
 158.7600      115
 158.7800      119
 158.8000       99
 158.8200      104
 158.8400      127
 158.8600      115
 158.8800      115
 158.9000       98
 158.9200       97
 158.9400      118
 158.9600      116
 158.9800       90
 159.0000       96
 159.0200      110
 159.0400      103
 159.0600      113
 159.0800       95
 159.1000       97
 159.1200      103
 159.1400       89
 159.1600      106
 159.1800       97
 159.2000       87
 159.2200      113
 159.2400      107
 159.2600      121
 159.2800       92
 159.3000       86
 159.3200      111
 159.3400       97
 159.3600      104
 159.3800       83
 159.4000      108
 159.4200       90
 159.4400      105
 159.4600       83
 159.4800       96
 159.5000       89
 159.5200      100
 159.5400       78
 159.5600       93
 159.5800      100
 159.6000      104
 159.6200       85
 159.6400       91
 159.6600       95
 159.6800       96
 159.7000       88
 159.7200       71
 159.7400      107
 159.7600       74
 159.7800       70
 159.8000       91
 159.8200       96
 159.8400       99
 159.8600       85
 159.8800       80
 159.9000       82
 159.9200       79
 159.9400       86
 159.9600       81
 159.9800       77
 160.0000       81