File: XRD_Tool/XRD_Tool/bin/Debug/SDD_sample_name_01234_Psi-0_20180602-195316.txt
 150.0000      127
 150.0200      134
 150.0400      141
 150.0600      130
 150.0800      140
 150.1000      133
 150.1200      152
 150.1400      140
 150.1600      146
 150.1800      148
 150.2000      131
 150.2200      142
 150.2400      138
 150.2600      110
 150.2800      134
 150.3000      136
 150.3200      141
 150.3400      137
 150.3600      153
 150.3800      135
 150.4000      162
 150.4200      160
 150.4400      159
 150.4600      165
 150.4800      144
 150.5000      153
 150.5200      158
 150.5400      136
 150.5600      142
 150.5800      144
 150.6000      145
 150.6200      148
 150.6400      135
 150.6600      163
 150.6800      173
 150.7000      153
 150.7200      173
 150.7400      159
 150.7600      172
 150.7800      149
 150.8000      174
 150.8200      155
 150.8400      157
 150.8600      165
 150.8800      149
 150.9000      169
 150.9200      166
 150.9400      172
 150.9600      170
 150.9800      187
 151.0000      173
 151.0200      206
 151.0400      178
 151.0600      184
 151.0800      182
 151.1000      181
 151.1200      200
 151.1400      183
 151.1600      168
 151.1800      180
 151.2000      180
 151.2200      192
 151.2400      174
 151.2600      194
 151.2800      186
 151.3000      174
 151.3200      207
 151.3400      194
 151.3600      191
 151.3800      195
 151.4000      209
 151.4200      207
 151.4400      214
 151.4600      191
 151.4800      197
 151.5000      233
 151.5200      225
 151.5400      205
 151.5600      208
 151.5800      208
 151.6000      214
 151.6200      233
 151.6400      234
 151.6600      226
 151.6800      203
 151.7000      193
 151.7200      207
 151.7400      246
 151.7600      246
 151.7800      234
 151.8000      220
 151.8200      248
 151.8400      237
 151.8600      229
 151.8800      243
 151.9000      243
 151.9200      247
 151.9400      248
 151.9600      249
 151.9800      256
 152.0000      263
 152.0200      257
 152.0400      266
 152.0600      271
 152.0800      252
 152.1000      276
 152.1200      273
 152.1400      279
 152.1600      259
 152.1800      260
 152.2000      295
 152.2200      276
 152.2400      250
 152.2600      269
 152.2800      286
 152.3000      282
 152.3200      276
 152.3400      293
 152.3600      303
 152.3800      288
 152.4000      274
 152.4200      310
 152.4400      276
 152.4600      299
 152.4800      310
 152.5000      279
 152.5200      333
 152.5400      324
 152.5600      315
 152.5800      335
 152.6000      316
 152.6200      285
 152.6400      328
 152.6600      325
 152.6800      312
 152.7000      307
 152.7200      342
 152.7400      325
 152.7600      341
 152.7800      348
 152.8000      319
 152.8200      336
 152.8400      337
 152.8600      335
 152.8800      346
 152.9000      341
 152.9200      349
 152.9400      357
 152.9600      392
 152.9800      375
 153.0000      332
 153.0200      402
 153.0400      339
 153.0600      351
 153.0800      340
 153.1000      380
 153.1200      348
 153.1400      325
 153.1600      402
 153.1800      372
 153.2000      378
 153.2200      384
 153.2400      394
 153.2600      417
 153.2800      366
 153.3000      381
 153.3200      415
 153.3400      418
 153.3600      381
 153.3800      411
 153.4000      413
 153.4200      416
 153.4400      426
 153.4600      412
 153.4800      416
 153.5000      403
 153.5200      398
 153.5400      423
 153.5600      409
 153.5800      443
 153.6000      442
 153.6200      424
 153.6400      423
 153.6600      440
 153.6800      426
 153.7000      427
 153.7200      423
 153.7400      435
 153.7600      452
 153.7800      435
 153.8000      428
 153.8200      476
 153.8400      396
 153.8600      435
 153.8800      448
 153.9000      481
 153.9200      443
 153.9400      444
 153.9600      459
 153.9800      458
 154.0000      483
 154.0200      433
 154.0400      423
 154.0600      497
 154.0800      438
 154.1000      472
 154.1200      483
 154.1400      439
 154.1600      450
 154.1800      441
 154.2000      457
 154.2200      471
 154.2400      445
 154.2600      474
 154.2800      437
 154.3000      476
 154.3200      483
 154.3400      473
 154.3600      468
 154.3800      468
 154.4000      458
 154.4200      455
 154.4400      463
 154.4600      498
 154.4800      471
 154.5000      453
 154.5200      431
 154.5400      461
 154.5600      498
 154.5800      496
 154.6000      475
 154.6200      491
 154.6400      464
 154.6600      469
 154.6800      484
 154.7000      473
 154.7200      477
 154.7400      470
 154.7600      477
 154.7800      476
 154.8000      462
 154.8200      458
 154.8400      457
 154.8600      467
 154.8800      486
 154.9000      473
 154.9200      527
 154.9400      478
 154.9600      438
 154.9800      487
 155.0000      478
 155.0200      456
 155.0400      501
 155.0600      484
 155.0800      501
 155.1000      460
 155.1200      498
 155.1400      454
 155.1600      476
 155.1800      471
 155.2000      453
 155.2200      456
 155.2400      449
 155.2600      468
 155.2800      459
 155.3000      464
 155.3200      480
 155.3400      455
 155.3600      494
 155.3800      475
 155.4000      475
 155.4200      439
 155.4400      476
 155.4600      450
 155.4800      484
 155.5000      417
 155.5200      501
 155.5400      436
 155.5600      442
 155.5800      443
 155.6000      448
 155.6200      449
 155.6400      453
 155.6600      455
 155.6800      438
 155.7000      435
 155.7200      425
 155.7400      420
 155.7600      477
 155.7800      445
 155.8000      444
 155.8200      431
 155.8400      456
 155.8600      434
 155.8800      461
 155.9000      432
 155.9200      390
 155.9400      416
 155.9600      445
 155.9800      463
 156.0000      439
 156.0200      435
 156.0400      453
 156.0600      414
 156.0800      424
 156.1000      419
 156.1200      443
 156.1400      398
 156.1600      394
 156.1800      415
 156.2000      417
 156.2200      389
 156.2400      423
 156.2600      394
 156.2800      397
 156.3000      400
 156.3200      393
 156.3400      410
 156.3600      401
 156.3800      398
 156.4000      389
 156.4200      387
 156.4400      365
 156.4600      368
 156.4800      382
 156.5000      368
 156.5200      385
 156.5400      373
 156.5600      382
 156.5800      371
 156.6000      362
 156.6200      391
 156.6400      366
 156.6600      378
 156.6800      380
 156.7000      372
 156.7200      357
 156.7400      366
 156.7600      343
 156.7800      352
 156.8000      374
 156.8200      415
 156.8400      343
 156.8600      340
 156.8800      342
 156.9000      342
 156.9200      334
 156.9400      341
 156.9600      400
 156.9800      350
 157.0000      375
 157.0200      345
 157.0400      348
 157.0600      313
 157.0800      308
 157.1000      340
 157.1200      335
 157.1400      318
 157.1600      375
 157.1800      320
 157.2000      314
 157.2200      292
 157.2400      326
 157.2600      310
 157.2800      289
 157.3000      326
 157.3200      304
 157.3400      306
 157.3600      294
 157.3800      275
 157.4000      284
 157.4200      304
 157.4400      291
 157.4600      298
 157.4800      267
 157.5000      309
 157.5200      310
 157.5400      270
 157.5600      276
 157.5800      277
 157.6000      275
 157.6200      267
 157.6400      276
 157.6600      294
 157.6800      298
 157.7000      277
 157.7200      279
 157.7400      270
 157.7600      272
 157.7800      299
 157.8000      248
 157.8200      286
 157.8400      254
 157.8600      287
 157.8800      285
 157.9000      263
 157.9200      261
 157.9400      250
 157.9600      242
 157.9800      234
 158.0000      260