File: XRD_Tool/XRD_Tool/bin/Debug/SDD_sample_name_001_Psi-30_20180528-074623.txt
 150.0000       58
 150.0200       74
 150.0400       49
 150.0600       79
 150.0800       58
 150.1000       63
 150.1200       77
 150.1400       57
 150.1600       73
 150.1800       69
 150.2000       56
 150.2200       66
 150.2400       59
 150.2600       66
 150.2800       61
 150.3000       62
 150.3200       66
 150.3400       48
 150.3600       60
 150.3800       60
 150.4000       59
 150.4200       74
 150.4400       68
 150.4600       55
 150.4800       58
 150.5000       83
 150.5200       63
 150.5400       71
 150.5600       61
 150.5800       71
 150.6000       65
 150.6200       64
 150.6400       54
 150.6600       61
 150.6800       75
 150.7000       79
 150.7200       60
 150.7400       66
 150.7600       68
 150.7800       80
 150.8000       74
 150.8200       68
 150.8400       89
 150.8600       81
 150.8800       71
 150.9000       59
 150.9200       62
 150.9400       71
 150.9600       60
 150.9800       74
 151.0000       77
 151.0200       88
 151.0400       62
 151.0600       74
 151.0800       73
 151.1000       69
 151.1200       76
 151.1400       64
 151.1600       82
 151.1800       74
 151.2000       68
 151.2200       82
 151.2400       72
 151.2600       81
 151.2800       65
 151.3000       76
 151.3200       75
 151.3400      101
 151.3600       76
 151.3800       77
 151.4000       77
 151.4200       85
 151.4400       67
 151.4600       61
 151.4800       78
 151.5000       84
 151.5200       76
 151.5400       72
 151.5600      102
 151.5800       93
 151.6000       84
 151.6200       89
 151.6400      104
 151.6600       80
 151.6800       89
 151.7000       94
 151.7200       82
 151.7400       80
 151.7600       98
 151.7800       94
 151.8000       84
 151.8200       76
 151.8400       92
 151.8600       87
 151.8800       96
 151.9000      100
 151.9200       98
 151.9400       99
 151.9600      101
 151.9800      108
 152.0000      102
 152.0200       95
 152.0400      110
 152.0600       94
 152.0800      109
 152.1000      119
 152.1200       85
 152.1400      113
 152.1600       98
 152.1800       98
 152.2000      110
 152.2200      109
 152.2400      120
 152.2600      106
 152.2800      116
 152.3000      101
 152.3200      112
 152.3400      104
 152.3600      111
 152.3800      117
 152.4000      130
 152.4200      101
 152.4400      108
 152.4600      113
 152.4800      118
 152.5000      113
 152.5200      113
 152.5400      126
 152.5600      130
 152.5800      128
 152.6000      136
 152.6200      144
 152.6400      111
 152.6600      133
 152.6800      133
 152.7000      142
 152.7200      138
 152.7400      164
 152.7600      132
 152.7800      174
 152.8000      147
 152.8200      134
 152.8400      140
 152.8600      143
 152.8800      149
 152.9000      156
 152.9200      144
 152.9400      173
 152.9600      167
 152.9800      169
 153.0000      166
 153.0200      158
 153.0400      162
 153.0600      163
 153.0800      160
 153.1000      202
 153.1200      157
 153.1400      181
 153.1600      200
 153.1800      171
 153.2000      157
 153.2200      190
 153.2400      188
 153.2600      196
 153.2800      191
 153.3000      185
 153.3200      171
 153.3400      220
 153.3600      203
 153.3800      224
 153.4000      220
 153.4200      192
 153.4400      242
 153.4600      222
 153.4800      212
 153.5000      220
 153.5200      220
 153.5400      204
 153.5600      218
 153.5800      215
 153.6000      228
 153.6200      214
 153.6400      238
 153.6600      252
 153.6800      243
 153.7000      219
 153.7200      249
 153.7400      233
 153.7600      311
 153.7800      276
 153.8000      283
 153.8200      279
 153.8400      269
 153.8600      284
 153.8800      274
 153.9000      275
 153.9200      309
 153.9400      255
 153.9600      282
 153.9800      298
 154.0000      284
 154.0200      291
 154.0400      359
 154.0600      326
 154.0800      329
 154.1000      325
 154.1200      332
 154.1400      376
 154.1600      312
 154.1800      322
 154.2000      338
 154.2200      361
 154.2400      311
 154.2600      342
 154.2800      393
 154.3000      369
 154.3200      387
 154.3400      391
 154.3600      403
 154.3800      374
 154.4000      394
 154.4200      389
 154.4400      391
 154.4600      390
 154.4800      412
 154.5000      360
 154.5200      384
 154.5400      401
 154.5600      367
 154.5800      413
 154.6000      394
 154.6200      421
 154.6400      438
 154.6600      409
 154.6800      435
 154.7000      430
 154.7200      424
 154.7400      400
 154.7600      457
 154.7800      416
 154.8000      374
 154.8200      460
 154.8400      437
 154.8600      450
 154.8800      426
 154.9000      435
 154.9200      417
 154.9400      444
 154.9600      390
 154.9800      423
 155.0000      427
 155.0200      430
 155.0400      417
 155.0600      473
 155.0800      441
 155.1000      434
 155.1200      457
 155.1400      408
 155.1600      468
 155.1800      462
 155.2000      435
 155.2200      432
 155.2400      427
 155.2600      450
 155.2800      427
 155.3000      444
 155.3200      461
 155.3400      397
 155.3600      436
 155.3800      442
 155.4000      424
 155.4200      455
 155.4400      450
 155.4600      411
 155.4800      432
 155.5000      449
 155.5200      455
 155.5400      401
 155.5600      434
 155.5800      421
 155.6000      402
 155.6200      415
 155.6400      439
 155.6600      430
 155.6800      420
 155.7000      384
 155.7200      392
 155.7400      411
 155.7600      381
 155.7800      407
 155.8000      386
 155.8200      400
 155.8400      399
 155.8600      395
 155.8800      356
 155.9000      345
 155.9200      399
 155.9400      382
 155.9600      376
 155.9800      356
 156.0000      400
 156.0200      347
 156.0400      331
 156.0600      312
 156.0800      380
 156.1000      335
 156.1200      324
 156.1400      346
 156.1600      343
 156.1800      337
 156.2000      342
 156.2200      325
 156.2400      310
 156.2600      318
 156.2800      352
 156.3000      335
 156.3200      313
 156.3400      328
 156.3600      302
 156.3800      328
 156.4000      315
 156.4200      299
 156.4400      293
 156.4600      300
 156.4800      277
 156.5000      294
 156.5200      287
 156.5400      285
 156.5600      249
 156.5800      274
 156.6000      260
 156.6200      275
 156.6400      279
 156.6600      262
 156.6800      264
 156.7000      249
 156.7200      248
 156.7400      237
 156.7600      274
 156.7800      237
 156.8000      246
 156.8200      232
 156.8400      250
 156.8600      258
 156.8800      249
 156.9000      219
 156.9200      210
 156.9400      222
 156.9600      207
 156.9800      213
 157.0000      211
 157.0200      205
 157.0400      199
 157.0600      205
 157.0800      189
 157.1000      209
 157.1200      164
 157.1400      174
 157.1600      181
 157.1800      212
 157.2000      190
 157.2200      186
 157.2400      181
 157.2600      187
 157.2800      189
 157.3000      176
 157.3200      182
 157.3400      187
 157.3600      165
 157.3800      177
 157.4000      175
 157.4200      172
 157.4400      172
 157.4600      168
 157.4800      179
 157.5000      148
 157.5200      177
 157.5400      165
 157.5600      142
 157.5800      172
 157.6000      159
 157.6200      177
 157.6400      153
 157.6600      144
 157.6800      147
 157.7000      174
 157.7200      153
 157.7400      163
 157.7600      135
 157.7800      149
 157.8000      140
 157.8200      160
 157.8400      121
 157.8600      157
 157.8800      143
 157.9000      140
 157.9200      128
 157.9400      144
 157.9600      132
 157.9800      149
 158.0000      144
 158.0200      134
 158.0400      126
 158.0600      139
 158.0800      128
 158.1000      127
 158.1200      110
 158.1400      136
 158.1600      132
 158.1800      112
 158.2000      122
 158.2200      119
 158.2400      114
 158.2600      112
 158.2800      100
 158.3000      100
 158.3200      111
 158.3400      117
 158.3600      106
 158.3800      113
 158.4000      115
 158.4200      121
 158.4400      122
 158.4600      123
 158.4800      114
 158.5000      101
 158.5200      107
 158.5400      116
 158.5600      102
 158.5800      101
 158.6000      114
 158.6200      103
 158.6400      102
 158.6600      107
 158.6800      106
 158.7000      115
 158.7200       88
 158.7400      117
 158.7600       99
 158.7800       95
 158.8000      108
 158.8200      106
 158.8400      101
 158.8600      108
 158.8800      108
 158.9000       95
 158.9200       94
 158.9400       97
 158.9600       78
 158.9800       77
 159.0000       91
 159.0200       88
 159.0400       99
 159.0600       90
 159.0800       90
 159.1000       70
 159.1200       95
 159.1400       97
 159.1600       81
 159.1800       88
 159.2000       90
 159.2200       82
 159.2400      107
 159.2600      100
 159.2800       67
 159.3000      100
 159.3200      100
 159.3400       79
 159.3600       87
 159.3800       78
 159.4000       59
 159.4200       81
 159.4400       74
 159.4600       87
 159.4800       92
 159.5000       75
 159.5200       80
 159.5400       82
 159.5600       83
 159.5800       72
 159.6000       81
 159.6200       78
 159.6400       80
 159.6600       72
 159.6800       79
 159.7000       77
 159.7200       74
 159.7400       93
 159.7600       67
 159.7800       70
 159.8000       78
 159.8200       77
 159.8400       93
 159.8600       78
 159.8800       73
 159.9000       73
 159.9200       93
 159.9400       84
 159.9600       89
 159.9800       68
 160.0000       70