File: XRD_Tool/XRD_Tool/bin/Debug/SDD_sample_name_01234_Psi-0_20180602-101616.txt
 145.0000       37
 145.0200       41
 145.0000       37
 145.0200       41
 145.0400       42
 145.0600       31
 145.0400       42
 145.0600       31
 145.0800       38
 145.1000       45
 145.0800       38
 145.1000       45
 145.1200       41
 145.1400       28
 145.1200       41
 145.1400       28
 145.1600       49
 145.1800       39
 145.1600       49
 145.1800       39
 145.2000       46
 145.2200       50
 145.2000       46
 145.2200       50
 145.2400       48
 145.2600       36
 145.2400       48
 145.2600       36
 145.2800       39
 145.3000       33
 145.2800       39
 145.3000       33
 145.3200       47
 145.3400       40
 145.3200       47
 145.3400       40
 145.3600       43
 145.3800       33
 145.3600       43
 145.3800       33
 145.4000       45
 145.4200       34
 145.4000       45
 145.4200       34
 145.4400       34
 145.4600       34
 145.4400       34
 145.4600       34
 145.4800       31
 145.5000       44
 145.4800       31
 145.5000       44
 145.5200       46
 145.5400       36
 145.5200       46
 145.5400       36
 145.5600       51
 145.5800       42
 145.5600       51
 145.5800       42
 145.6000       50
 145.6200       50
 145.6000       50
 145.6200       50
 145.6400       47
 145.6600       46
 145.6400       47
 145.6600       46
 145.6800       29
 145.7000       51
 145.6800       29
 145.7000       51
 145.7200       36
 145.7400       36
 145.7200       36
 145.7400       36
 145.7600       35
 145.7800       35
 145.7600       35
 145.7800       35
 145.8000       40
 145.8200       43
 145.8000       40
 145.8200       43
 145.8400       40
 145.8600       27
 145.8400       40
 145.8600       27
 145.8800       38
 145.9000       40
 145.8800       38
 145.9000       40
 145.9200       41
 145.9400       32
 145.9200       41
 145.9400       32
 145.9600       27
 145.9800       44
 145.9600       27
 145.9800       44
 146.0000       50
 146.0200       40
 146.0000       50
 146.0200       40
 146.0400       46
 146.0600       50
 146.0400       46
 146.0600       50
 146.0800       44
 146.1000       37
 146.0800       44
 146.1000       37
 146.1200       37
 146.1400       53
 146.1200       37
 146.1400       53
 146.1600       52
 146.1800       30
 146.1600       52
 146.1800       30
 146.2000       50
 146.2200       27
 146.2000       50
 146.2200       27
 146.2400       44
 146.2600       40
 146.2400       44
 146.2600       40
 146.2800       47
 146.3000       34
 146.2800       47
 146.3000       34
 146.3200       42
 146.3400       40
 146.3200       42
 146.3400       40
 146.3600       41
 146.3800       45
 146.3600       41
 146.3800       45
 146.4000       35
 146.4200       33
 146.4000       35
 146.4200       33
 146.4400       28
 146.4600       49
 146.4400       28
 146.4600       49
 146.4800       45
 146.5000       39
 146.4800       45
 146.5000       39
 146.5200       36
 146.5400       33
 146.5200       36
 146.5400       33
 146.5600       44
 146.5800       42
 146.5600       44
 146.5800       42
 146.6000       41
 146.6200       42
 146.6400       40
 146.6000       41
 146.6200       42
 146.6400       40
 146.6600       37
 146.6800       44
 146.6600       37
 146.6800       44
 146.7000       44
 146.7200       46
 146.7000       44
 146.7200       46
 146.7400       53
 146.7600       53
 146.7400       53
 146.7600       53
 146.7800       39
 146.8000       36
 146.7800       39
 146.8000       36
 146.8200       43
 146.8400       54
 146.8200       43
 146.8400       54
 146.8600       39
 146.8800       46
 146.8600       39
 146.8800       46
 146.9000       40
 146.9200       31
 146.9000       40
 146.9200       31
 146.9400       32
 146.9600       40
 146.9400       32
 146.9600       40
 146.9800       32
 147.0000       43
 146.9800       32
 147.0000       43
 147.0200       32
 147.0400       53
 147.0200       32
 147.0400       53
 147.0600       37
 147.0800       35
 147.0600       37
 147.0800       35
 147.1000       49
 147.1200       38
 147.1000       49
 147.1200       38
 147.1400       37
 147.1600       43
 147.1400       37
 147.1600       43
 147.1800       56
 147.2000       32
 147.1800       56
 147.2000       32
 147.2200       30
 147.2400       34
 147.2200       30
 147.2400       34
 147.2600       40
 147.2800       42
 147.2600       40
 147.2800       42
 147.3000       49
 147.3200       46
 147.3000       49
 147.3200       46
 147.3400       53
 147.3600       38
 147.3400       53
 147.3600       38
 147.3800       43
 147.4000       50
 147.3800       43
 147.4000       50
 147.4200       40
 147.4400       47
 147.4200       40
 147.4400       47
 147.4600       44
 147.4800       39
 147.4600       44
 147.4800       39
 147.5000       45
 147.5200       47
 147.5000       45
 147.5200       47
 147.5400       45
 147.5600       36
 147.5400       45
 147.5600       36
 147.5800       46
 147.6000       41
 147.5800       46
 147.6000       41
 147.6200       35
 147.6400       46
 147.6200       35
 147.6400       46
 147.6600       40
 147.6800       41
 147.6600       40
 147.6800       41
 147.7000       49
 147.7200       38
 147.7000       49
 147.7200       38
 147.7400       42
 147.7600       44
 147.7400       42
 147.7600       44
 147.7800       33
 147.8000       29
 147.7800       33
 147.8000       29
 147.8200       41
 147.8400       45
 147.8200       41
 147.8400       45
 147.8600       53
 147.8800       40
 147.8600       53
 147.8800       40
 147.9000       35
 147.9200       38
 147.9000       35
 147.9200       38
 147.9400       44
 147.9600       44
 147.9400       44
 147.9600       44
 147.9800       45
 148.0000       44
 147.9800       45
 148.0000       44
 148.0200       51
 148.0400       49
 148.0200       51
 148.0400       49
 148.0600       38
 148.0800       53
 148.0600       38
 148.0800       53
 148.1000       41
 148.1200       38
 148.1000       41
 148.1200       38
 148.1400       45
 148.1600       47
 148.1400       45
 148.1600       47
 148.1800       53
 148.2000       50
 148.1800       53
 148.2000       50
 148.2200       45
 148.2400       53
 148.2200       45
 148.2400       53
 148.2600       51
 148.2800       36
 148.2600       51
 148.2800       36
 148.3000       50
 148.3200       48
 148.3000       50
 148.3200       48
 148.3400       44
 148.3600       39
 148.3400       44
 148.3600       39
 148.3800       43
 148.4000       47
 148.3800       43
 148.4000       47
 148.4200       55
 148.4400       38
 148.4200       55
 148.4400       38
 148.4600       31
 148.4800       48
 148.4600       31
 148.4800       48
 148.5000       48
 148.5200       23
 148.5000       48
 148.5200       23
 148.5400       54
 148.5600       51
 148.5400       54
 148.5600       51
 148.5800       47
 148.6000       69
 148.5800       47
 148.6000       69
 148.6200       62
 148.6400       47
 148.6200       62
 148.6400       47
 148.6600       50
 148.6800       39
 148.6600       50
 148.6800       39
 148.7000       29
 148.7200       49
 148.7400       38
 148.7000       29
 148.7200       49
 148.7400       38
 148.7600       32
 148.7800       57
 148.7600       32
 148.7800       57
 148.8000       33
 148.8200       39
 148.8000       33
 148.8200       39
 148.8400       53
 148.8600       44
 148.8400       53
 148.8600       44
 148.8800       50
 148.9000       49
 148.8800       50
 148.9000       49
 148.9200       47
 148.9400       55
 148.9200       47
 148.9400       55
 148.9600       36
 148.9800       47
 148.9600       36
 148.9800       47
 149.0000       60
 149.0200       41
 149.0000       60
 149.0200       41
 149.0400       40
 149.0600       51
 149.0400       40
 149.0600       51
 149.0800       44
 149.1000       49
 149.0800       44
 149.1000       49
 149.1200       56
 149.1400       47
 149.1200       56
 149.1400       47
 149.1600       33
 149.1800       45
 149.1600       33
 149.1800       45
 149.2000       50
 149.2200       52
 149.2000       50
 149.2200       52
 149.2400       48
 149.2600       54
 149.2400       48
 149.2600       54
 149.2800       50
 149.3000       45
 149.2800       50
 149.3000       45
 149.3200       47
 149.3400       48
 149.3600       53
 149.3200       47
 149.3400       48
 149.3600       53
 149.3800       36
 149.4000       42
 149.3800       36
 149.4000       42
 149.4200       44
 149.4400       67
 149.4200       44
 149.4400       67
 149.4600       64
 149.4800       58
 149.4600       64
 149.4800       58
 149.5000       48
 149.5200       33
 149.5000       48
 149.5200       33
 149.5400       46
 149.5600       41
 149.5400       46
 149.5600       41
 149.5800       53
 149.6000       45
 149.5800       53
 149.6000       45
 149.6200       57
 149.6400       55
 149.6200       57
 149.6400       55
 149.6600       52
 149.6800       55
 149.6600       52
 149.6800       55
 149.7000       54
 149.7200       59
 149.7000       54
 149.7200       59
 149.7400       53
 149.7600       67
 149.7400       53
 149.7600       67
 149.7800       56
 149.8000       63
 149.7800       56
 149.8000       63
 149.8200       62
 149.8400       53
 149.8200       62
 149.8400       53
 149.8600       61
 149.8800       54
 149.8600       61
 149.8800       54
 149.9000       45
 149.9200       66
 149.9000       45
 149.9200       66
 149.9400       46
 149.9600       59
 149.9400       46
 149.9600       59
 149.9800       55
 150.0000       70
 149.9800       55
 150.0000       70