File: XRD_Tool/XRD_Tool/bin/Debug/SDD_sample_name_001_Psi-30_20180528-050523.txt
 150.0000       45
 150.0200       72
 150.0400       61
 150.0600       72
 150.0800       62
 150.1000       60
 150.1200       60
 150.1400       58
 150.1600       71
 150.1800       73
 150.2000       75
 150.2200       60
 150.2400       75
 150.2600       78
 150.2800       62
 150.3000       70
 150.3200       56
 150.3400       88
 150.3600       71
 150.3800       75
 150.4000       79
 150.4200       68
 150.4400       75
 150.4600       80
 150.4800       80
 150.5000       92
 150.5200       72
 150.5400       64
 150.5600       78
 150.5800       70
 150.6000       76
 150.6200       78
 150.6400       88
 150.6600       58
 150.6800       72
 150.7000       73
 150.7200       68
 150.7400       84
 150.7600       86
 150.7800       80
 150.8000       90
 150.8200       81
 150.8400       65
 150.8600       80
 150.8800       74
 150.9000       70
 150.9200       69
 150.9400       83
 150.9600       70
 150.9800       70
 151.0000       73
 151.0200       70
 151.0400       88
 151.0600       68
 151.0800       84
 151.1000       89
 151.1200       64
 151.1400       88
 151.1600       80
 151.1800       84
 151.2000       74
 151.2200       72
 151.2400       77
 151.2600       71
 151.2800       83
 151.3000       84
 151.3200       77
 151.3400       81
 151.3600       87
 151.3800       79
 151.4000       98
 151.4200       90
 151.4400       78
 151.4600       69
 151.4800       85
 151.5000       85
 151.5200       80
 151.5400       81
 151.5600       95
 151.5800       67
 151.6000      107
 151.6200       93
 151.6400      104
 151.6600       86
 151.6800       84
 151.7000      105
 151.7200       86
 151.7400       78
 151.7600       84
 151.7800      102
 151.8000       94
 151.8200       87
 151.8400       77
 151.8600       99
 151.8800       99
 151.9000       99
 151.9200      100
 151.9400       91
 151.9600      103
 151.9800      113
 152.0000       90
 152.0200      114
 152.0400      117
 152.0600      111
 152.0800      108
 152.1000       97
 152.1200      105
 152.1400      122
 152.1600      121
 152.1800      109
 152.2000      119
 152.2200      117
 152.2400      126
 152.2600      104
 152.2800      118
 152.3000      120
 152.3200      105
 152.3400      114
 152.3600      107
 152.3800      113
 152.4000      117
 152.4200      128
 152.4400      138
 152.4600      120
 152.4800      115
 152.5000      132
 152.5200      133
 152.5400      134
 152.5600      115
 152.5800      131
 152.6000      152
 152.6200      140
 152.6400      129
 152.6600      134
 152.6800      152
 152.7000      147
 152.7200      150
 152.7400      143
 152.7600      154
 152.7800      126
 152.8000      157
 152.8200      151
 152.8400      154
 152.8600      169
 152.8800      155
 152.9000      147
 152.9200      152
 152.9400      167
 152.9600      170
 152.9800      163
 153.0000      166
 153.0200      161
 153.0400      154
 153.0600      163
 153.0800      153
 153.1000      176
 153.1200      187
 153.1400      189
 153.1600      213
 153.1800      163
 153.2000      156
 153.2200      190
 153.2400      174
 153.2600      157
 153.2800      198
 153.3000      218
 153.3200      204
 153.3400      200
 153.3600      192
 153.3800      193
 153.4000      184
 153.4200      221
 153.4400      212
 153.4600      195
 153.4800      206
 153.5000      238
 153.5200      238
 153.5400      201
 153.5600      246
 153.5800      235
 153.6000      236
 153.6200      217
 153.6400      262
 153.6600      246
 153.6800      256
 153.7000      234
 153.7200      248
 153.7400      276
 153.7600      275
 153.7800      272
 153.8000      267
 153.8200      253
 153.8400      303
 153.8600      257
 153.8800      262
 153.9000      291
 153.9200      289
 153.9400      271
 153.9600      288
 153.9800      285
 154.0000      302
 154.0200      295
 154.0400      330
 154.0600      306
 154.0800      330
 154.1000      303
 154.1200      319
 154.1400      282
 154.1600      359
 154.1800      345
 154.2000      347
 154.2200      328
 154.2400      361
 154.2600      339
 154.2800      377
 154.3000      371
 154.3200      373
 154.3400      358
 154.3600      386
 154.3800      366
 154.4000      352
 154.4200      370
 154.4400      372
 154.4600      388
 154.4800      387
 154.5000      357
 154.5200      397
 154.5400      395
 154.5600      461
 154.5800      416
 154.6000      403
 154.6200      385
 154.6400      429
 154.6600      430
 154.6800      390
 154.7000      373
 154.7200      444
 154.7400      393
 154.7600      431
 154.7800      422
 154.8000      440
 154.8200      430
 154.8400      423
 154.8600      442
 154.8800      450
 154.9000      439
 154.9200      421
 154.9400      432
 154.9600      443
 154.9800      433
 155.0000      449
 155.0200      443
 155.0400      447
 155.0600      413
 155.0800      473
 155.1000      432
 155.1200      425
 155.1400      429
 155.1600      450
 155.1800      430
 155.2000      453
 155.2200      450
 155.2400      449
 155.2600      466
 155.2800      415
 155.3000      436
 155.3200      465
 155.3400      460
 155.3600      411
 155.3800      435
 155.4000      444
 155.4200      414
 155.4400      416
 155.4600      423
 155.4800      414
 155.5000      425
 155.5200      386
 155.5400      434
 155.5600      464
 155.5800      379
 155.6000      394
 155.6200      395
 155.6400      391
 155.6600      379
 155.6800      408
 155.7000      379
 155.7200      372
 155.7400      423
 155.7600      389
 155.7800      376
 155.8000      389
 155.8200      410
 155.8400      386
 155.8600      365
 155.8800      368
 155.9000      322
 155.9200      339
 155.9400      355
 155.9600      419
 155.9800      377
 156.0000      387
 156.0200      356
 156.0400      314
 156.0600      357
 156.0800      360
 156.1000      347
 156.1200      350
 156.1400      337
 156.1600      326
 156.1800      327
 156.2000      318
 156.2200      310
 156.2400      302
 156.2600      299
 156.2800      285
 156.3000      338
 156.3200      287
 156.3400      314
 156.3600      292
 156.3800      279
 156.4000      314
 156.4200      294
 156.4400      272
 156.4600      308
 156.4800      301
 156.5000      293
 156.5200      249
 156.5400      242
 156.5600      299
 156.5800      288
 156.6000      267
 156.6200      291
 156.6400      257
 156.6600      247
 156.6800      270
 156.7000      272
 156.7200      230
 156.7400      255
 156.7600      226
 156.7800      244
 156.8000      257
 156.8200      218
 156.8400      248
 156.8600      217
 156.8800      239
 156.9000      234
 156.9200      225
 156.9400      237
 156.9600      232
 156.9800      210
 157.0000      201
 157.0200      197
 157.0400      215
 157.0600      209
 157.0800      205
 157.1000      209
 157.1200      214
 157.1400      221
 157.1600      180
 157.1800      212
 157.2000      197
 157.2200      197
 157.2400      184
 157.2600      173
 157.2800      176
 157.3000      175
 157.3200      178
 157.3400      171
 157.3600      178
 157.3800      177
 157.4000      160
 157.4200      174
 157.4400      174
 157.4600      160
 157.4800      186
 157.5000      180
 157.5200      149
 157.5400      160
 157.5600      154
 157.5800      172
 157.6000      160
 157.6200      147
 157.6400      145
 157.6600      164
 157.6800      129
 157.7000      144
 157.7200      160
 157.7400      155
 157.7600      156
 157.7800      112
 157.8000      155
 157.8200      130
 157.8400      154
 157.8600      145
 157.8800      151
 157.9000      138
 157.9200      133
 157.9400      127
 157.9600      136
 157.9800      131
 158.0000      126
 158.0200      126
 158.0400      124
 158.0600      133
 158.0800      141
 158.1000      110
 158.1200      142
 158.1400      114
 158.1600      126
 158.1800      122
 158.2000      120
 158.2200      118
 158.2400      139
 158.2600      108
 158.2800      121
 158.3000      112
 158.3200      120
 158.3400      111
 158.3600       94
 158.3800       94
 158.4000      117
 158.4200      108
 158.4400      106
 158.4600       96
 158.4800      110
 158.5000      104
 158.5200      125
 158.5400      117
 158.5600      103
 158.5800      111
 158.6000      101
 158.6200       96
 158.6400      118
 158.6600       96
 158.6800      119
 158.7000      102
 158.7200      106
 158.7400       92
 158.7600      100
 158.7800      112
 158.8000       98
 158.8200       91
 158.8400      112
 158.8600      109
 158.8800       88
 158.9000      112
 158.9200       85
 158.9400       95
 158.9600      109
 158.9800       92
 159.0000      105
 159.0200       96
 159.0400      103
 159.0600      107
 159.0800       76
 159.1000       92
 159.1200       92
 159.1400       92
 159.1600       94
 159.1800       96
 159.2000      106
 159.2200       89
 159.2400       87
 159.2600       86
 159.2800      109
 159.3000       78
 159.3200       94
 159.3400       90
 159.3600       93
 159.3800       85
 159.4000       95
 159.4200       93
 159.4400       84
 159.4600       88
 159.4800       99
 159.5000       80
 159.5200       75
 159.5400       85
 159.5600       92
 159.5800       93
 159.6000       80
 159.6200       80
 159.6400       89
 159.6600       85
 159.6800       89
 159.7000       91
 159.7200       74
 159.7400       93
 159.7600      100
 159.7800       80
 159.8000       90
 159.8200       74
 159.8400       78
 159.8600       62
 159.8800       86
 159.9000       65
 159.9200       72
 159.9400       97
 159.9600       70
 159.9800       88
 160.0000       87