File: XRD_Tool/XRD_Tool/bin/Debug/SDD_sample_name_001_Psi-20_20180528-074540.txt
 150.0000       64
 150.0200       58
 150.0400       63
 150.0600       64
 150.0800       67
 150.1000       39
 150.1200       76
 150.1400       47
 150.1600       68
 150.1800       81
 150.2000       86
 150.2200       70
 150.2400       70
 150.2600       73
 150.2800       55
 150.3000       70
 150.3200       70
 150.3400       69
 150.3600       65
 150.3800       70
 150.4000       60
 150.4200       58
 150.4400       63
 150.4600       56
 150.4800       68
 150.5000       46
 150.5200       84
 150.5400       74
 150.5600       64
 150.5800       69
 150.6000       76
 150.6200       71
 150.6400       73
 150.6600       63
 150.6800       77
 150.7000       82
 150.7200       73
 150.7400       78
 150.7600       57
 150.7800       62
 150.8000       81
 150.8200       62
 150.8400       65
 150.8600       76
 150.8800       77
 150.9000       78
 150.9200       75
 150.9400       78
 150.9600       84
 150.9800       63
 151.0000       79
 151.0200       69
 151.0400       70
 151.0600       73
 151.0800       90
 151.1000       78
 151.1200       85
 151.1400       73
 151.1600       91
 151.1800       89
 151.2000       79
 151.2200       77
 151.2400       82
 151.2600       70
 151.2800       74
 151.3000       93
 151.3200       85
 151.3400       74
 151.3600       86
 151.3800      101
 151.4000       85
 151.4200       86
 151.4400       86
 151.4600       83
 151.4800       96
 151.5000       90
 151.5200       98
 151.5400       98
 151.5600       69
 151.5800       85
 151.6000       84
 151.6200       88
 151.6400      105
 151.6600       96
 151.6800       90
 151.7000       86
 151.7200       91
 151.7400       85
 151.7600       97
 151.7800      109
 151.8000       94
 151.8200      120
 151.8400       99
 151.8600       93
 151.8800      109
 151.9000      111
 151.9200       94
 151.9400      121
 151.9600      115
 151.9800       93
 152.0000      104
 152.0200       99
 152.0400       90
 152.0600      136
 152.0800       85
 152.1000      108
 152.1200      118
 152.1400      119
 152.1600      108
 152.1800      115
 152.2000      111
 152.2200      111
 152.2400      114
 152.2600      140
 152.2800      128
 152.3000      122
 152.3200      114
 152.3400      111
 152.3600      140
 152.3800      132
 152.4000      125
 152.4200      151
 152.4400      127
 152.4600      131
 152.4800      133
 152.5000      139
 152.5200      129
 152.5400      120
 152.5600      124
 152.5800      141
 152.6000      144
 152.6200      157
 152.6400      135
 152.6600      165
 152.6800      137
 152.7000      154
 152.7200      148
 152.7400      169
 152.7600      156
 152.7800      162
 152.8000      147
 152.8200      162
 152.8400      149
 152.8600      153
 152.8800      156
 152.9000      164
 152.9200      176
 152.9400      169
 152.9600      172
 152.9800      182
 153.0000      180
 153.0200      200
 153.0400      177
 153.0600      191
 153.0800      193
 153.1000      170
 153.1200      171
 153.1400      214
 153.1600      196
 153.1800      187
 153.2000      216
 153.2200      218
 153.2400      200
 153.2600      205
 153.2800      225
 153.3000      233
 153.3200      212
 153.3400      222
 153.3600      227
 153.3800      224
 153.4000      228
 153.4200      218
 153.4400      233
 153.4600      238
 153.4800      252
 153.5000      271
 153.5200      254
 153.5400      299
 153.5600      275
 153.5800      267
 153.6000      252
 153.6200      279
 153.6400      287
 153.6600      324
 153.6800      277
 153.7000      299
 153.7200      313
 153.7400      297
 153.7600      312
 153.7800      277
 153.8000      319
 153.8200      315
 153.8400      340
 153.8600      307
 153.8800      318
 153.9000      354
 153.9200      353
 153.9400      351
 153.9600      392
 153.9800      355
 154.0000      365
 154.0200      336
 154.0400      380
 154.0600      331
 154.0800      386
 154.1000      380
 154.1200      370
 154.1400      403
 154.1600      397
 154.1800      388
 154.2000      381
 154.2200      368
 154.2400      407
 154.2600      388
 154.2800      409
 154.3000      405
 154.3200      413
 154.3400      400
 154.3600      430
 154.3800      433
 154.4000      422
 154.4200      387
 154.4400      440
 154.4600      453
 154.4800      449
 154.5000      464
 154.5200      397
 154.5400      430
 154.5600      453
 154.5800      483
 154.6000      452
 154.6200      464
 154.6400      457
 154.6600      427
 154.6800      476
 154.7000      484
 154.7200      477
 154.7400      435
 154.7600      478
 154.7800      459
 154.8000      445
 154.8200      470
 154.8400      488
 154.8600      453
 154.8800      454
 154.9000      486
 154.9200      475
 154.9400      464
 154.9600      467
 154.9800      463
 155.0000      473
 155.0200      506
 155.0400      477
 155.0600      492
 155.0800      482
 155.1000      441
 155.1200      486
 155.1400      436
 155.1600      445
 155.1800      455
 155.2000      487
 155.2200      477
 155.2400      425
 155.2600      448
 155.2800      420
 155.3000      430
 155.3200      466
 155.3400      426
 155.3600      453
 155.3800      447
 155.4000      438
 155.4200      415
 155.4400      456
 155.4600      448
 155.4800      432
 155.5000      444
 155.5200      419
 155.5400      449
 155.5600      407
 155.5800      448
 155.6000      388
 155.6200      415
 155.6400      403
 155.6600      400
 155.6800      401
 155.7000      405
 155.7200      417
 155.7400      383
 155.7600      398
 155.7800      388
 155.8000      362
 155.8200      412
 155.8400      366
 155.8600      327
 155.8800      397
 155.9000      362
 155.9200      327
 155.9400      334
 155.9600      380
 155.9800      338
 156.0000      329
 156.0200      315
 156.0400      313
 156.0600      334
 156.0800      355
 156.1000      344
 156.1200      326
 156.1400      341
 156.1600      310
 156.1800      316
 156.2000      317
 156.2200      294
 156.2400      283
 156.2600      291
 156.2800      261
 156.3000      299
 156.3200      308
 156.3400      298
 156.3600      296
 156.3800      274
 156.4000      274
 156.4200      294
 156.4400      269
 156.4600      266
 156.4800      277
 156.5000      280
 156.5200      247
 156.5400      309
 156.5600      263
 156.5800      217
 156.6000      265
 156.6200      246
 156.6400      247
 156.6600      230
 156.6800      267
 156.7000      250
 156.7200      234
 156.7400      207
 156.7600      251
 156.7800      215
 156.8000      196
 156.8200      229
 156.8400      225
 156.8600      219
 156.8800      217
 156.9000      206
 156.9200      215
 156.9400      202
 156.9600      214
 156.9800      199
 157.0000      208
 157.0200      203
 157.0400      194
 157.0600      193
 157.0800      204
 157.1000      182
 157.1200      198
 157.1400      156
 157.1600      182
 157.1800      178
 157.2000      166
 157.2200      159
 157.2400      194
 157.2600      167
 157.2800      181
 157.3000      181
 157.3200      198
 157.3400      184
 157.3600      178
 157.3800      172
 157.4000      166
 157.4200      166
 157.4400      162
 157.4600      165
 157.4800      156
 157.5000      144
 157.5200      142
 157.5400      132
 157.5600      156
 157.5800      145
 157.6000      151
 157.6200      160
 157.6400      155
 157.6600      149
 157.6800      153
 157.7000      142
 157.7200      144
 157.7400      140
 157.7600      136
 157.7800      146
 157.8000      154
 157.8200      132
 157.8400      133
 157.8600      131
 157.8800      110
 157.9000      140
 157.9200      115
 157.9400      122
 157.9600      116
 157.9800      140
 158.0000      124
 158.0200      128
 158.0400      128
 158.0600      115
 158.0800      139
 158.1000      115
 158.1200      144
 158.1400      127
 158.1600      125
 158.1800      112
 158.2000      112
 158.2200      128
 158.2400      112
 158.2600      101
 158.2800      104
 158.3000      126
 158.3200      111
 158.3400      123
 158.3600      111
 158.3800      121
 158.4000      103
 158.4200      111
 158.4400      100
 158.4600      114
 158.4800      100
 158.5000      113
 158.5200      103
 158.5400      102
 158.5600       99
 158.5800      102
 158.6000      102
 158.6200      113
 158.6400       99
 158.6600      103
 158.6800       96
 158.7000      115
 158.7200       98
 158.7400       94
 158.7600       91
 158.7800       90
 158.8000       77
 158.8200       99
 158.8400       92
 158.8600       91
 158.8800       87
 158.9000       89
 158.9200       79
 158.9400       94
 158.9600      101
 158.9800      102
 159.0000       90
 159.0200      103
 159.0400       94
 159.0600       79
 159.0800       85
 159.1000       96
 159.1200       85
 159.1400       86
 159.1600       77
 159.1800       83
 159.2000       90
 159.2200       99
 159.2400       81
 159.2600       76
 159.2800       94
 159.3000       87
 159.3200       83
 159.3400       95
 159.3600       91
 159.3800       84
 159.4000       69
 159.4200       87
 159.4400       84
 159.4600       78
 159.4800       82
 159.5000       92
 159.5200       53
 159.5400       88
 159.5600       79
 159.5800       87
 159.6000       75
 159.6200       88
 159.6400       88
 159.6600       70
 159.6800       67
 159.7000       81
 159.7200       93
 159.7400       74
 159.7600       82
 159.7800       82
 159.8000       83
 159.8200       79
 159.8400       85
 159.8600       74
 159.8800       69
 159.9000       80
 159.9200       86
 159.9400       65
 159.9600       69
 159.9800       68
 160.0000       54