File: XRD_Tool/XRD_Tool/bin/Debug/SDD_sample_name_01234_Psi-0_20180602-101145.txt
 145.0000       35
 145.0200       45
 145.0400       27
 145.0600       35
 145.0800       30
 145.1000       42
 145.1200       40
 145.1400       28
 145.1600       44
 145.1800       40
 145.2000       40
 145.2200       48
 145.2400       38
 145.2600       41
 145.2800       43
 145.3000       39
 145.3200       30
 145.3400       27
 145.3600       35
 145.3800       47
 145.4000       42
 145.4200       43
 145.4400       47
 145.4600       41
 145.4800       28
 145.5000       43
 145.5200       53
 145.5400       30
 145.5600       31
 145.5800       42
 145.6000       33
 145.6200       45
 145.6400       25
 145.6600       40
 145.6800       36
 145.7000       39
 145.7200       38
 145.7400       42
 145.7600       54
 145.7800       35
 145.8000       50
 145.8200       35
 145.8400       34
 145.8600       35
 145.8800       40
 145.9000       42
 145.9200       46
 145.9400       35
 145.9600       43
 145.9800       31
 146.0000       55
 146.0200       42
 146.0400       40
 146.0600       35
 146.0800       40
 146.1000       43
 146.1200       41
 146.1400       53
 146.1600       34
 146.1800       48
 146.2000       37
 146.2200       42
 146.2400       41
 146.2600       49
 146.2800       41
 146.3000       45
 146.3200       40
 146.3400       42
 146.3600       38
 146.3800       38
 146.4000       55
 146.4200       40
 146.4400       42
 146.4600       42
 146.4800       50
 146.5000       46
 146.5200       31
 146.5400       48
 146.5600       42
 146.5800       44
 146.6000       48
 146.6200       37
 146.6400       42
 146.6600       32
 146.6800       40
 146.7000       36
 146.7200       51
 146.7400       36
 146.7600       43
 146.7800       42
 146.8000       47
 146.8200       34
 146.8400       35
 146.8600       39
 146.8800       38
 146.9000       36
 146.9200       42
 146.9400       47
 146.9600       39
 146.9800       47
 147.0000       35
 147.0200       45
 147.0400       43
 147.0600       48
 147.0800       34
 147.1000       34
 147.1200       40
 147.1400       46
 147.1600       36
 147.1800       36
 147.2000       43
 147.2200       35
 147.2400       27
 147.2600       43
 147.2800       39
 147.3000       48
 147.3200       45
 147.3400       51
 147.3600       52
 147.3800       51
 147.4000       42
 147.4200       38
 147.4400       43
 147.4600       44
 147.4800       61
 147.5000       41
 147.5200       46
 147.5400       46
 147.5600       36
 147.5800       30
 147.6000       47
 147.6200       38
 147.6400       49
 147.6600       35
 147.6800       54
 147.7000       40
 147.7200       36
 147.7400       40
 147.7600       44
 147.7800       49
 147.8000       50
 147.8200       44
 147.8400       38
 147.8600       38
 147.8800       42
 147.9000       40
 147.9200       36
 147.9400       30
 147.9600       34
 147.9800       43
 148.0000       54
 148.0200       47
 148.0400       51
 148.0600       43
 148.0800       47
 148.1000       42
 148.1200       43
 148.1400       48
 148.1600       38
 148.1800       46
 148.2000       48
 148.2200       61
 148.2400       40
 148.2600       42
 148.2800       51
 148.3000       43
 148.3200       26
 148.3400       50
 148.3600       53
 148.3800       42
 148.4000       50
 148.4200       53
 148.4400       49
 148.4600       43
 148.4800       44
 148.5000       57
 148.5200       25
 148.5400       35
 148.5600       54
 148.5800       35
 148.6000       42
 148.6200       45
 148.6400       40
 148.6600       42
 148.6800       37
 148.7000       51
 148.7200       49
 148.7400       49
 148.7600       39
 148.7800       46
 148.8000       48
 148.8200       46
 148.8400       40
 148.8600       45
 148.8800       47
 148.9000       54
 148.9200       42
 148.9400       50
 148.9600       54
 148.9800       49
 149.0000       37
 149.0200       47
 149.0400       35
 149.0600       53
 149.0800       42
 149.1000       39
 149.1200       40
 149.1400       58
 149.1600       47
 149.1800       50
 149.2000       50
 149.2200       53
 149.2400       44
 149.2600       44
 149.2800       49
 149.3000       50
 149.3200       45
 149.3400       44
 149.3600       56
 149.3800       51
 149.4000       46
 149.4200       31
 149.4400       53
 149.4600       45
 149.4800       49
 149.5000       51
 149.5200       52
 149.5400       47
 149.5600       50
 149.5800       38
 149.6000       48
 149.6200       50
 149.6400       57
 149.6600       63
 149.6800       36
 149.7000       59
 149.7200       44
 149.7400       56
 149.7600       59
 149.7800       46
 149.8000       40
 149.8200       50
 149.8400       54
 149.8600       68
 149.8800       45
 149.9000       65
 149.9200       45
 149.9400       49
 149.9600       46
 149.9800       68
 150.0000       64
 150.0200       68
 150.0400       62
 150.0600       61
 150.0800       52
 150.1000       45
 150.1200       64
 150.1400       50
 150.1600       49
 150.1800       56
 150.2000       37
 150.2200       62
 150.2400       52
 150.2600       59
 150.2800       52
 150.3000       61
 150.3200       61
 150.3400       47
 150.3600       68
 150.3800       61
 150.4000       65
 150.4200       48
 150.4400       53
 150.4600       52
 150.4800       66
 150.5000       62
 150.5200       59
 150.5400       75
 150.5600       50
 150.5800       61
 150.6000       64
 150.6200       66
 150.6400       61
 150.6600       44
 150.6800       74
 150.7000       72
 150.7200       80
 150.7400       69
 150.7600       73
 150.7800       68
 150.8000       71
 150.8200       68
 150.8400       79
 150.8600       74
 150.8800       57
 150.9000       82
 150.9200       84
 150.9400       69
 150.9600       83
 150.9800       80
 151.0000       65
 151.0200       77
 151.0400       73
 151.0600       80
 151.0800       74
 151.1000       76
 151.1200       66
 151.1400       77
 151.1600       62
 151.1800       75
 151.2000       92
 151.2200       66
 151.2400       68
 151.2600       87
 151.2800       83
 151.3000       82
 151.3200       82
 151.3400       86
 151.3600       75
 151.3800       74
 151.4000       86
 151.4200       86
 151.4400       80
 151.4600       81
 151.4800       85
 151.5000       91
 151.5200       94
 151.5400       75
 151.5600       81
 151.5800       93
 151.6000       89
 151.6200       81
 151.6400       88
 151.6600       99
 151.6800       93
 151.7000       83
 151.7200      103
 151.7400       92
 151.7600       82
 151.7800      105
 151.8000       96
 151.8200      101
 151.8400       89
 151.8600      115
 151.8800      101
 151.9000       84
 151.9200       94
 151.9400      108
 151.9600      110
 151.9800      101
 152.0000       98
 152.0200      116
 152.0400      111
 152.0600      130
 152.0800      118
 152.1000      138
 152.1200      105
 152.1400      126
 152.1600      106
 152.1800      124
 152.2000      129
 152.2200      118
 152.2400      109
 152.2600      117
 152.2800      140
 152.3000      144
 152.3200      120
 152.3400      116
 152.3600      129
 152.3800      138
 152.4000      122
 152.4200      156
 152.4400      119
 152.4600      146
 152.4800      124
 152.5000      156
 152.5200      131
 152.5400      144
 152.5600      160
 152.5800      164
 152.6000      146
 152.6200      146
 152.6400      141
 152.6600      175
 152.6800      164
 152.7000      177
 152.7200      140
 152.7400      152
 152.7600      163
 152.7800      181
 152.8000      158
 152.8200      194
 152.8400      185
 152.8600      195
 152.8800      177
 152.9000      161
 152.9200      191
 152.9400      182
 152.9600      182
 152.9800      194
 153.0000      205
 153.0200      198
 153.0400      227
 153.0600      219
 153.0800      188
 153.1000      224
 153.1200      207
 153.1400      213
 153.1600      227
 153.1800      217
 153.2000      210
 153.2200      260
 153.2400      249
 153.2600      239
 153.2800      228
 153.3000      258
 153.3200      271
 153.3400      262
 153.3600      295
 153.3800      256
 153.4000      276
 153.4200      269
 153.4400      276
 153.4600      287
 153.4800      291
 153.5000      296
 153.5200      309
 153.5400      350
 153.5600      330
 153.5800      303
 153.6000      321
 153.6200      308
 153.6400      341
 153.6600      341
 153.6800      323
 153.7000      339
 153.7200      361
 153.7400      354
 153.7600      326
 153.7800      359
 153.8000      395
 153.8200      369
 153.8400      345
 153.8600      398
 153.8800      379
 153.9000      374
 153.9200      373
 153.9400      351
 153.9600      377
 153.9800      388
 154.0000      404
 154.0200      397
 154.0400      432
 154.0600      448
 154.0800      399
 154.1000      438
 154.1200      436
 154.1400      442
 154.1600      430
 154.1800      446
 154.2000      440
 154.2200      431
 154.2400      446
 154.2600      448
 154.2800      403
 154.3000      425
 154.3200      448
 154.3400      436
 154.3600      457
 154.3800      463
 154.4000      486
 154.4200      492
 154.4400      427
 154.4600      452
 154.4800      472
 154.5000      457
 154.5200      467
 154.5400      451
 154.5600      456
 154.5800      517
 154.6000      498
 154.6200      481
 154.6400      470
 154.6600      515
 154.6800      472
 154.7000      470
 154.7200      477
 154.7400      511
 154.7600      470
 154.7800      443
 154.8000      489
 154.8200      490
 154.8400      473
 154.8600      466
 154.8800      446
 154.9000      467
 154.9200      477
 154.9400      465
 154.9600      470
 154.9800      451
 155.0000      437