File: XRD_Tool/XRD_Tool/bin/Debug/SDD_sample_name_01234_Psi-0_20180602-131241.txt
 145.0000       45
 145.0200       35
 145.0400       38
 145.0600       42
 145.0800       36
 145.1000       34
 145.1200       37
 145.1400       42
 145.1600       43
 145.1800       39
 145.2000       30
 145.2200       35
 145.2400       21
 145.2600       31
 145.2800       32
 145.3000       39
 145.3200       38
 145.3400       38
 145.3600       36
 145.3800       40
 145.4000       40
 145.4200       39
 145.4400       33
 145.4600       34
 145.4800       38
 145.5000       35
 145.5200       37
 145.5400       27
 145.5600       28
 145.5800       45
 145.6000       33
 145.6200       23
 145.6400       48
 145.6600       39
 145.6800       28
 145.7000       42
 145.7200       40
 145.7400       30
 145.7600       43
 145.7800       33
 145.8000       43
 145.8200       36
 145.8400       35
 145.8600       30
 145.8800       46
 145.9000       47
 145.9200       36
 145.9400       46
 145.9600       39
 145.9800       33
 146.0000       38
 146.0200       36
 146.0400       34
 146.0600       33
 146.0800       32
 146.1000       36
 146.1200       47
 146.1400       54
 146.1600       37
 146.1800       35
 146.2000       45
 146.2200       36
 146.2400       26
 146.2600       39
 146.2800       42
 146.3000       46
 146.3200       35
 146.3400       52
 146.3600       38
 146.3800       36
 146.4000       30
 146.4200       41
 146.4400       35
 146.4600       31
 146.4800       31
 146.5000       48
 146.5200       38
 146.5400       38
 146.5600       39
 146.5800       47
 146.6000       46
 146.6200       37
 146.6400       49
 146.6600       30
 146.6800       49
 146.7000       44
 146.7200       36
 146.7400       34
 146.7600       38
 146.7800       26
 146.8000       40
 146.8200       43
 146.8400       45
 146.8600       43
 146.8800       38
 146.9000       31
 146.9200       53
 146.9400       40
 146.9600       46
 146.9800       31
 147.0000       39
 147.0200       47
 147.0400       39
 147.0600       33
 147.0800       51
 147.1000       36
 147.1200       38
 147.1400       44
 147.1600       42
 147.1800       31
 147.2000       44
 147.2200       40
 147.2400       31
 147.2600       46
 147.2800       44
 147.3000       40
 147.3200       38
 147.3400       31
 147.3600       45
 147.3800       39
 147.4000       59
 147.4200       27
 147.4400       46
 147.4600       53
 147.4800       41
 147.5000       38
 147.5200       54
 147.5400       45
 147.5600       37
 147.5800       35
 147.6000       34
 147.6200       51
 147.6400       35
 147.6600       41
 147.6800       48
 147.7000       47
 147.7200       48
 147.7400       38
 147.7600       36
 147.7800       44
 147.8000       39
 147.8200       42
 147.8400       38
 147.8600       55
 147.8800       43
 147.9000       42
 147.9200       41
 147.9400       47
 147.9600       42
 147.9800       42
 148.0000       44
 148.0200       50
 148.0400       42
 148.0600       48
 148.0800       46
 148.1000       47
 148.1200       37
 148.1400       36
 148.1600       37
 148.1800       46
 148.2000       41
 148.2200       50
 148.2400       53
 148.2600       49
 148.2800       48
 148.3000       42
 148.3200       43
 148.3400       41
 148.3600       55
 148.3800       48
 148.4000       33
 148.4200       52
 148.4400       48
 148.4600       42
 148.4800       44
 148.5000       41
 148.5200       51
 148.5400       44
 148.5600       48
 148.5800       45
 148.6000       43
 148.6200       53
 148.6400       46
 148.6600       46
 148.6800       34
 148.7000       39
 148.7200       48
 148.7400       38
 148.7600       45
 148.7800       46
 148.8000       45
 148.8200       40
 148.8400       39
 148.8600       48
 148.8800       52
 148.9000       40
 148.9200       49
 148.9400       44
 148.9600       45
 148.9800       52
 149.0000       45
 149.0200       44
 149.0400       45
 149.0600       44
 149.0800       53
 149.1000       51
 149.1200       54
 149.1400       43
 149.1600       33
 149.1800       42
 149.2000       50
 149.2200       52
 149.2400       57
 149.2600       46
 149.2800       37
 149.3000       52
 149.3200       50
 149.3400       56
 149.3600       36
 149.3800       48
 149.4000       55
 149.4200       50
 149.4400       50
 149.4600       50
 149.4800       57
 149.5000       47
 149.5200       48
 149.5400       51
 149.5600       55
 149.5800       49
 149.6000       42
 149.6200       49
 149.6400       53
 149.6600       42
 149.6800       35
 149.7000       49
 149.7200       54
 149.7400       53
 149.7600       55
 149.7800       41
 149.8000       59
 149.8200       55
 149.8400       62
 149.8600       51
 149.8800       51
 149.9000       62
 149.9200       58
 149.9400       55
 149.9600       50
 149.9800       54
 150.0000       60
 150.0200       51
 150.0400       55
 150.0600       50
 150.0800       63
 150.1000       54
 150.1200       62
 150.1400       51
 150.1600       44
 150.1800       60
 150.2000       51
 150.2200       55
 150.2400       59
 150.2600       56
 150.2800       45
 150.3000       65
 150.3200       56
 150.3400       62
 150.3600       55
 150.3800       54
 150.4000       53
 150.4200       58
 150.4400       64
 150.4600       69
 150.4800       65
 150.5000       53
 150.5200       62
 150.5400       51
 150.5600       55
 150.5800       77
 150.6000       71
 150.6200       61
 150.6400       55
 150.6600       57
 150.6800       72
 150.7000       64
 150.7200       53
 150.7400       74
 150.7600       63
 150.7800       73
 150.8000       68
 150.8200       44
 150.8400       53
 150.8600       59
 150.8800       84
 150.9000       65
 150.9200       67
 150.9400       63
 150.9600       80
 150.9800       65
 151.0000       67
 151.0200       66
 151.0400       71
 151.0600       59
 151.0800       86
 151.1000       84
 151.1200       83
 151.1400       98
 151.1600       61
 151.1800       82
 151.2000       73
 151.2200       63
 151.2400       70
 151.2600       79
 151.2800       83
 151.3000       69
 151.3200       85
 151.3400       72
 151.3600       88
 151.3800       67
 151.4000       75
 151.4200       86
 151.4400       73
 151.4600       75
 151.4800       94
 151.5000       89
 151.5200       84
 151.5400       76
 151.5600       89
 151.5800       80
 151.6000       87
 151.6200       94
 151.6400       99
 151.6600      102
 151.6800       83
 151.7000       99
 151.7200      108
 151.7400       83
 151.7600       95
 151.7800       81
 151.8000       98
 151.8200      101
 151.8400       96
 151.8600       96
 151.8800      104
 151.9000       95
 151.9200       99
 151.9400      106
 151.9600       85
 151.9800      118
 152.0000       93
 152.0200      104
 152.0400      112
 152.0600      125
 152.0800      124
 152.1000      122
 152.1200      130
 152.1400      129
 152.1600      124
 152.1800       97
 152.2000      135
 152.2200      127
 152.2400      126
 152.2600      144
 152.2800      141
 152.3000      145
 152.3200      126
 152.3400      125
 152.3600      133
 152.3800      136
 152.4000      154
 152.4200      109
 152.4400      145
 152.4600      132
 152.4800      141
 152.5000      142
 152.5200      139
 152.5400      142
 152.5600      126
 152.5800      178
 152.6000      175
 152.6200      176
 152.6400      176
 152.6600      155
 152.6800      151
 152.7000      170
 152.7200      169
 152.7400      165
 152.7600      155
 152.7800      156
 152.8000      181
 152.8200      171
 152.8400      195
 152.8600      200
 152.8800      187
 152.9000      190
 152.9200      222
 152.9400      178
 152.9600      191
 152.9800      195
 153.0000      214
 153.0200      223
 153.0400      226
 153.0600      193
 153.0800      215
 153.1000      232
 153.1200      213
 153.1400      227
 153.1600      237
 153.1800      247
 153.2000      233
 153.2200      229
 153.2400      246
 153.2600      223
 153.2800      246
 153.3000      230
 153.3200      242
 153.3400      251
 153.3600      275
 153.3800      264
 153.4000      269
 153.4200      273
 153.4400      300
 153.4600      290
 153.4800      303
 153.5000      300
 153.5200      309
 153.5400      297
 153.5600      329
 153.5800      315
 153.6000      319
 153.6200      342
 153.6400      331
 153.6600      356
 153.6800      357
 153.7000      364
 153.7200      348
 153.7400      352
 153.7600      364
 153.7800      343
 153.8000      352
 153.8200      360
 153.8400      383
 153.8600      409
 153.8800      361
 153.9000      382
 153.9200      387
 153.9400      403
 153.9600      399
 153.9800      406
 154.0000      431
 154.0200      364
 154.0400      400
 154.0600      432
 154.0800      410
 154.1000      399
 154.1200      413
 154.1400      469
 154.1600      452
 154.1800      456
 154.2000      465
 154.2200      444
 154.2400      461
 154.2600      476
 154.2800      458
 154.3000      457
 154.3200      428
 154.3400      446
 154.3600      454
 154.3800      465
 154.4000      475
 154.4200      441
 154.4400      474
 154.4600      474
 154.4800      475
 154.5000      445
 154.5200      483
 154.5400      468
 154.5600      469
 154.5800      470
 154.6000      480
 154.6200      503
 154.6400      481
 154.6600      470
 154.6800      459
 154.7000      485
 154.7200      478
 154.7400      479
 154.7600      485
 154.7800      470
 154.8000      486
 154.8200      454
 154.8400      468
 154.8600      498
 154.8800      482
 154.9000      490
 154.9200      451
 154.9400      460
 154.9600      491
 154.9800      455
 155.0000      437