File: XRD_Tool/XRD_Tool/bin/Debug/SDD_sample_name_01234_Psi-0_20180602-105613.txt
 145.0000       45
 145.0200       44
 145.0400       38
 145.0600       47
 145.0800       37
 145.1000       43
 145.1200       44
 145.1400       37
 145.1600       32
 145.1800       48
 145.2000       34
 145.2200       37
 145.2400       35
 145.2600       40
 145.2800       29
 145.3000       42
 145.3200       29
 145.3400       41
 145.3600       44
 145.3800       42
 145.4000       47
 145.4200       31
 145.4400       37
 145.4600       30
 145.4800       44
 145.5000       46
 145.5200       43
 145.5400       39
 145.5600       38
 145.5800       44
 145.6000       46
 145.6200       60
 145.6400       41
 145.6600       41
 145.6800       24
 145.7000       41
 145.7200       44
 145.7400       41
 145.7600       39
 145.7800       40
 145.8000       33
 145.8200       35
 145.8400       47
 145.8600       43
 145.8800       47
 145.9000       50
 145.9200       49
 145.9400       35
 145.9600       39
 145.9800       51
 146.0000       36
 146.0200       51
 146.0400       37
 146.0600       43
 146.0800       36
 146.1000       39
 146.1200       35
 146.1400       45
 146.1600       40
 146.1800       30
 146.2000       36
 146.2200       25
 146.2400       38
 146.2600       39
 146.2800       29
 146.3000       28
 146.3200       36
 146.3400       36
 146.3600       34
 146.3800       46
 146.4000       44
 146.4200       44
 146.4400       35
 146.4600       45
 146.4800       39
 146.5000       44
 146.5200       48
 146.5400       42
 146.5600       57
 146.5800       43
 146.6000       41
 146.6200       36
 146.6400       36
 146.6600       36
 146.6800       43
 146.7000       46
 146.7200       45
 146.7400       42
 146.7600       31
 146.7800       32
 146.8000       33
 146.8200       20
 146.8400       40
 146.8600       32
 146.8800       30
 146.9000       49
 146.9200       43
 146.9400       39
 146.9600       36
 146.9800       48
 147.0000       35
 147.0200       41
 147.0400       36
 147.0600       40
 147.0800       43
 147.1000       31
 147.1200       45
 147.1400       40
 147.1600       24
 147.1800       45
 147.2000       38
 147.2200       50
 147.2400       33
 147.2600       46
 147.2800       53
 147.3000       33
 147.3200       46
 147.3400       38
 147.3600       37
 147.3800       34
 147.4000       36
 147.4200       32
 147.4400       42
 147.4600       37
 147.4800       34
 147.5000       37
 147.5200       27
 147.5400       39
 147.5600       24
 147.5800       39
 147.6000       46
 147.6200       39
 147.6400       41
 147.6600       55
 147.6800       42
 147.7000       38
 147.7200       39
 147.7400       41
 147.7600       45
 147.7800       55
 147.8000       37
 147.8200       21
 147.8400       38
 147.8600       41
 147.8800       33
 147.9000       52
 147.9200       41
 147.9400       46
 147.9600       44
 147.9800       44
 148.0000       29
 148.0200       36
 148.0400       35
 148.0600       55
 148.0800       50
 148.1000       40
 148.1200       50
 148.1400       40
 148.1600       48
 148.1800       44
 148.2000       54
 148.2200       42
 148.2400       48
 148.2600       38
 148.2800       45
 148.3000       46
 148.3200       42
 148.3400       42
 148.3600       49
 148.3800       37
 148.4000       45
 148.4200       39
 148.4400       36
 148.4600       39
 148.4800       43
 148.5000       45
 148.5200       37
 148.5400       39
 148.5600       42
 148.5800       51
 148.6000       52
 148.6200       60
 148.6400       35
 148.6600       40
 148.6800       55
 148.7000       47
 148.7200       57
 148.7400       46
 148.7600       50
 148.7800       51
 148.8000       40
 148.8200       51
 148.8400       40
 148.8600       55
 148.8800       34
 148.9000       45
 148.9200       52
 148.9400       42
 148.9600       49
 148.9800       45
 149.0000       54
 149.0200       47
 149.0400       40
 149.0600       48
 149.0800       55
 149.1000       49
 149.1200       48
 149.1400       52
 149.1600       54
 149.1800       36
 149.2000       47
 149.2200       34
 149.2400       35
 149.2600       48
 149.2800       53
 149.3000       48
 149.3200       56
 149.3400       54
 149.3600       44
 149.3800       57
 149.4000       44
 149.4200       45
 149.4400       47
 149.4600       44
 149.4800       48
 149.5000       69
 149.5200       55
 149.5400       32
 149.5600       64
 149.5800       44
 149.6000       48
 149.6200       43
 149.6400       68
 149.6600       52
 149.6800       56
 149.7000       50
 149.7200       68
 149.7400       68
 149.7600       42
 149.7800       45
 149.8000       59
 149.8200       44
 149.8400       50
 149.8600       61
 149.8800       45
 149.9000       50
 149.9200       54
 149.9400       51
 149.9600       53
 149.9800       48
 150.0000       53
 150.0200       50
 150.0400       52
 150.0600       56
 150.0800       59
 150.1000       49
 150.1200       59
 150.1400       49
 150.1600       54
 150.1800       78
 150.2000       49
 150.2200       61
 150.2400       58
 150.2600       46
 150.2800       50
 150.3000       48
 150.3200       46
 150.3400       57
 150.3600       52
 150.3800       57
 150.4000       58
 150.4200       58
 150.4400       69
 150.4600       57
 150.4800       53
 150.5000       65
 150.5200       54
 150.5400       75
 150.5600       68
 150.5800       53
 150.6000       67
 150.6200       61
 150.6400       71
 150.6600       65
 150.6800       65
 150.7000       56
 150.7200       66
 150.7400       63
 150.7600       61
 150.7800       93
 150.8000       57
 150.8200       64
 150.8400       65
 150.8600       71
 150.8800       70
 150.9000       74
 150.9200       87
 150.9400       68
 150.9600       65
 150.9800       58
 151.0000       68
 151.0200       73
 151.0400       80
 151.0600       75
 151.0800       72
 151.1000       83
 151.1200       68
 151.1400       85
 151.1600       75
 151.1800       82
 151.2000       79
 151.2200       83
 151.2400       61
 151.2600       84
 151.2800       70
 151.3000       81
 151.3200       79
 151.3400       74
 151.3600       91
 151.3800       82
 151.4000       90
 151.4200       84
 151.4400       85
 151.4600       85
 151.4800       74
 151.5000       80
 151.5200       97
 151.5400       74
 151.5600       79
 151.5800       78
 151.6000       87
 151.6200       88
 151.6400      101
 151.6600       90
 151.6800       95
 151.7000       93
 151.7200       93
 151.7400       89
 151.7600      103
 151.7800       96
 151.8000       97
 151.8200       83
 151.8400      105
 151.8600      104
 151.8800      101
 151.9000       98
 151.9200       92
 151.9400       95
 151.9600       98
 151.9800      106
 152.0000      112
 152.0200      130
 152.0400      107
 152.0600      107
 152.0800       96
 152.1000      101
 152.1200      121
 152.1400      115
 152.1600      116
 152.1800      119
 152.2000      118
 152.2200      121
 152.2400      141
 152.2600      136
 152.2800      126
 152.3000      147
 152.3200      126
 152.3400      126
 152.3600      136
 152.3800      138
 152.4000      146
 152.4200      123
 152.4400      131
 152.4600      121
 152.4800      134
 152.5000      155
 152.5200      139
 152.5400      173
 152.5600      161
 152.5800      158
 152.6000      173
 152.6200      158
 152.6400      144
 152.6600      154
 152.6800      156
 152.7000      160
 152.7200      171
 152.7400      181
 152.7600      172
 152.7800      164
 152.8000      174
 152.8200      207
 152.8400      187
 152.8600      174
 152.8800      196
 152.9000      202
 152.9200      190
 152.9400      214
 152.9600      194
 152.9800      197
 153.0000      196
 153.0200      225
 153.0400      228
 153.0600      225
 153.0800      209
 153.1000      217
 153.1200      208
 153.1400      236
 153.1600      241
 153.1800      216
 153.2000      237
 153.2200      257
 153.2400      250
 153.2600      281
 153.2800      250
 153.3000      239
 153.3200      260
 153.3400      271
 153.3600      268
 153.3800      270
 153.4000      274
 153.4200      290
 153.4400      278
 153.4600      297
 153.4800      255
 153.5000      302
 153.5200      296
 153.5400      290
 153.5600      308
 153.5800      330
 153.6000      300
 153.6200      354
 153.6400      324
 153.6600      316
 153.6800      337
 153.7000      359
 153.7200      340
 153.7400      330
 153.7600      359
 153.7800      338
 153.8000      370
 153.8200      346
 153.8400      345
 153.8600      393
 153.8800      379
 153.9000      425
 153.9200      390
 153.9400      359
 153.9600      432
 153.9800      392
 154.0000      386
 154.0200      430
 154.0400      401
 154.0600      438
 154.0800      420
 154.1000      415
 154.1200      436
 154.1400      420
 154.1600      445
 154.1800      440
 154.2000      439
 154.2200      454
 154.2400      447
 154.2600      433
 154.2800      449
 154.3000      463
 154.3200      455
 154.3400      453
 154.3600      462
 154.3800      464
 154.4000      436
 154.4200      469
 154.4400      479
 154.4600      465
 154.4800      523
 154.5000      493
 154.5200      478
 154.5400      458
 154.5600      472
 154.5800      465
 154.6000      500
 154.6200      460
 154.6400      478
 154.6600      505
 154.6800      453
 154.7000      468
 154.7200      504
 154.7400      478
 154.7600      458
 154.7800      471
 154.8000      495
 154.8200      478
 154.8400      481
 154.8600      459
 154.8800      523
 154.9000      482
 154.9200      502
 154.9400      446
 154.9600      458
 154.9800      468
 155.0000      465