File: XRD_Tool/XRD_Tool/bin/Debug/SDD_sample_name_01234_Psi-0_20180602-095443.txt
 145.0000       42
 145.0200       35
 145.0400       32
 145.0600       38
 145.0800       38
 145.1000       33
 145.1200       28
 145.1400       42
 145.1600       24
 145.1800       29
 145.2000       37
 145.2200       38
 145.2400       42
 145.2600       33
 145.2800       47
 145.3000       40
 145.3200       46
 145.3400       37
 145.3600       45
 145.3800       42
 145.4000       33
 145.4200       24
 145.4400       34
 145.4600       37
 145.4800       29
 145.5000       28
 145.5200       33
 145.5400       36
 145.5600       48
 145.5800       48
 145.6000       35
 145.6200       22
 145.6400       34
 145.6600       39
 145.6800       33
 145.7000       24
 145.7200       29
 145.7400       42
 145.7600       36
 145.7800       37
 145.8000       26
 145.8200       35
 145.8400       36
 145.8600       46
 145.8800       42
 145.9000       29
 145.9200       40
 145.9400       38
 145.9600       43
 145.9800       34
 146.0000       28
 146.0200       26
 146.0400       29
 146.0600       42
 146.0800       48
 146.1000       50
 146.1200       33
 146.1400       46
 146.1600       43
 146.1800       50
 146.2000       32
 146.2200       35
 146.2400       41
 146.2600       39
 146.2800       42
 146.3000       30
 146.3200       40
 146.3400       44
 146.3600       35
 146.3800       38
 146.4000       44
 146.4200       39
 146.4400       45
 146.4600       58
 146.4800       28
 146.5000       30
 146.5200       45
 146.5400       46
 146.5600       43
 146.5800       44
 146.6000       37
 146.6200       40
 146.6400       50
 146.6600       31
 146.6800       35
 146.7000       41
 146.7200       46
 146.7400       37
 146.7600       55
 146.7800       37
 146.8000       36
 146.8200       25
 146.8400       43
 146.8600       33
 146.8800       33
 146.9000       48
 146.9200       36
 146.9400       43
 146.9600       30
 146.9800       38
 147.0000       43
 147.0200       30
 147.0400       33
 147.0600       42
 147.0800       39
 147.1000       33
 147.1200       38
 147.1400       41
 147.1600       34
 147.1800       51
 147.2000       42
 147.2200       41
 147.2400       46
 147.2600       32
 147.2800       29
 147.3000       46
 147.3200       38
 147.3400       37
 147.3600       37
 147.3800       39
 147.4000       30
 147.4200       43
 147.4400       34
 147.4600       39
 147.4800       29
 147.5000       41
 147.5200       43
 147.5400       39
 147.5600       38
 147.5800       49
 147.6000       25
 147.6200       45
 147.6400       41
 147.6600       36
 147.6800       39
 147.7000       40
 147.7200       41
 147.7400       34
 147.7600       33
 147.7800       37
 147.8000       43
 147.8200       48
 147.8400       43
 147.8600       49
 147.8800       51
 147.9000       37
 147.9200       47
 147.9400       44
 147.9600       54
 147.9800       37
 148.0000       52
 148.0200       44
 148.0400       50
 148.0600       45
 148.0800       45
 148.1000       42
 148.1200       34
 148.1400       37
 148.1600       38
 148.1800       37
 148.2000       52
 148.2200       50
 148.2400       45
 148.2600       37
 148.2800       42
 148.3000       47
 148.3200       41
 148.3400       39
 148.3600       37
 148.3800       48
 148.4000       31
 148.4200       45
 148.4400       42
 148.4600       46
 148.4800       49
 148.5000       46
 148.5200       42
 148.5400       42
 148.5600       56
 148.5800       44
 148.6000       40
 148.6200       44
 148.6400       36
 148.6600       51
 148.6800       43
 148.7000       43
 148.7200       52
 148.7400       58
 148.7600       49
 148.7800       49
 148.8000       41
 148.8200       57
 148.8400       57
 148.8600       52
 148.8800       54
 148.9000       33
 148.9200       57
 148.9400       52
 148.9600       38
 148.9800       47
 149.0000       51
 149.0200       55
 149.0400       58
 149.0600       34
 149.0800       45
 149.1000       41
 149.1200       38
 149.1400       48
 149.1600       49
 149.1800       49
 149.2000       50
 149.2200       48
 149.2400       55
 149.2600       50
 149.2800       58
 149.3000       48
 149.3200       50
 149.3400       51
 149.3600       62
 149.3800       49
 149.4000       50
 149.4200       43
 149.4400       43
 149.4600       59
 149.4800       48
 149.5000       46
 149.5200       44
 149.5400       56
 149.5600       44
 149.5800       42
 149.6000       59
 149.6200       59
 149.6400       32
 149.6600       62
 149.6800       44
 149.7000       45
 149.7200       57
 149.7400       49
 149.7600       51
 149.7800       60
 149.8000       43
 149.8200       51
 149.8400       59
 149.8600       68
 149.8800       54
 149.9000       55
 149.9200       62
 149.9400       59
 149.9600       49
 149.9800       47
 150.0000       58
 150.0200       50
 150.0400       55
 150.0600       46
 150.0800       51
 150.1000       47
 150.1200       68
 150.1400       59
 150.1600       54
 150.1800       62
 150.2000       54
 150.2200       55
 150.2400       57
 150.2600       59
 150.2800       56
 150.3000       52
 150.3200       45
 150.3400       59
 150.3600       64
 150.3800       54
 150.4000       66
 150.4200       59
 150.4400       66
 150.4600       71
 150.4800       77
 150.5000       60
 150.5200       75
 150.5400       56
 150.5600       64
 150.5800       66
 150.6000       52
 150.6200       61
 150.6400       50
 150.6600       71
 150.6800       75
 150.7000       67
 150.7200       73
 150.7400       51
 150.7600       55
 150.7800       74
 150.8000       55
 150.8200       85
 150.8400       57
 150.8600       79
 150.8800       74
 150.9000       59
 150.9200       65
 150.9400       64
 150.9600       71
 150.9800       71
 151.0000       60
 151.0200       71
 151.0400       75
 151.0600       61
 151.0800       77
 151.1000       75
 151.1200       89
 151.1400       71
 151.1600       72
 151.1800       69
 151.2000       94
 151.2200       72
 151.2400       96
 151.2600       86
 151.2800       71
 151.3000       77
 151.3200       83
 151.3400       83
 151.3600       73
 151.3800       75
 151.4000       75
 151.4200       76
 151.4400       77
 151.4600       89
 151.4800       83
 151.5000       85
 151.5200       91
 151.5400       80
 151.5600       92
 151.5800      106
 151.6000       97
 151.6200       85
 151.6400       81
 151.6600       78
 151.6800       98
 151.7000       97
 151.7200       98
 151.7400       91
 151.7600       98
 151.7800       86
 151.8000       95
 151.8200      104
 151.8400       73
 151.8600      107
 151.8800       95
 151.9000      100
 151.9200      117
 151.9400      118
 151.9600      111
 151.9800      104
 152.0000      101
 152.0200      114
 152.0400      109
 152.0600      101
 152.0800      120
 152.1000      106
 152.1200      106
 152.1400      112
 152.1600      113
 152.1800      111
 152.2000      141
 152.2200      117
 152.2400      128
 152.2600      115
 152.2800      112
 152.3000      127
 152.3200      120
 152.3400      134
 152.3600      121
 152.3800      132
 152.4000      153
 152.4200      135
 152.4400      131
 152.4600      159
 152.4800      148
 152.5000      174
 152.5200      128
 152.5400      134
 152.5600      144
 152.5800      163
 152.6000      156
 152.6200      155
 152.6400      166
 152.6600      152
 152.6800      147
 152.7000      193
 152.7200      160
 152.7400      169
 152.7600      183
 152.7800      160
 152.8000      185
 152.8200      181
 152.8400      170
 152.8600      166
 152.8800      175
 152.9000      194
 152.9200      199
 152.9400      189
 152.9600      211
 152.9800      207
 153.0000      217
 153.0200      209
 153.0400      211
 153.0600      194
 153.0800      209
 153.1000      200
 153.1200      225
 153.1400      230
 153.1600      223
 153.1800      241
 153.2000      248
 153.2200      232
 153.2400      239
 153.2600      235
 153.2800      251
 153.3000      279
 153.3200      266
 153.3400      271
 153.3600      267
 153.3800      259
 153.4000      301
 153.4200      272
 153.4400      294
 153.4600      280
 153.4800      299
 153.5000      299
 153.5200      282
 153.5400      283
 153.5600      284
 153.5800      314
 153.6000      284
 153.6200      305
 153.6400      358
 153.6600      351
 153.6800      332
 153.7000      306
 153.7200      330
 153.7400      359
 153.7600      342
 153.7800      350
 153.8000      341
 153.8200      413
 153.8400      371
 153.8600      382
 153.8800      380
 153.9000      397
 153.9200      383
 153.9400      391
 153.9600      374
 153.9800      406
 154.0000      431
 154.0200      410
 154.0400      414
 154.0600      394
 154.0800      410
 154.1000      404
 154.1200      438
 154.1400      458
 154.1600      444
 154.1800      438
 154.2000      452
 154.2200      406
 154.2400      454
 154.2600      425
 154.2800      418
 154.3000      471
 154.3200      471
 154.3400      407
 154.3600      439
 154.3800      493
 154.4000      442
 154.4200      472
 154.4400      477
 154.4600      483
 154.4800      476
 154.5000      468
 154.5200      456
 154.5400      461
 154.5600      481
 154.5800      477
 154.6000      479
 154.6200      472
 154.6400      471
 154.6600      479
 154.6800      482
 154.7000      461
 154.7200      505
 154.7400      503
 154.7600      457
 154.7800      475
 154.8000      473
 154.8200      478
 154.8400      445
 154.8600      435
 154.8800      469
 154.9000      432
 154.9200      464
 154.9400      441
 154.9600      491
 154.9800      490
 155.0000      472