File: XRD_Tool/XRD_Tool/bin/Debug/SDD_sample_name_01234_Psi-0_20180602-131358.txt
 145.0000       47
 145.0200       47
 145.0400       39
 145.0600       35
 145.0800       29
 145.1000       39
 145.1200       29
 145.1400       37
 145.1600       42
 145.1800       26
 145.2000       48
 145.2200       37
 145.2400       36
 145.2600       37
 145.2800       41
 145.3000       44
 145.3200       42
 145.3400       31
 145.3600       43
 145.3800       30
 145.4000       42
 145.4200       37
 145.4400       41
 145.4600       34
 145.4800       48
 145.5000       37
 145.5200       40
 145.5400       36
 145.5600       42
 145.5800       44
 145.6000       45
 145.6200       53
 145.6400       39
 145.6600       35
 145.6800       29
 145.7000       45
 145.7200       37
 145.7400       45
 145.7600       39
 145.7800       50
 145.8000       44
 145.8200       34
 145.8400       46
 145.8600       40
 145.8800       28
 145.9000       36
 145.9200       36
 145.9400       40
 145.9600       42
 145.9800       35
 146.0000       35
 146.0200       38
 146.0400       34
 146.0600       37
 146.0800       33
 146.1000       33
 146.1200       41
 146.1400       50
 146.1600       49
 146.1800       25
 146.2000       42
 146.2200       42
 146.2400       43
 146.2600       51
 146.2800       47
 146.3000       37
 146.3200       38
 146.3400       31
 146.3600       44
 146.3800       37
 146.4000       36
 146.4200       32
 146.4400       33
 146.4600       39
 146.4800       28
 146.5000       38
 146.5200       45
 146.5400       47
 146.5600       50
 146.5800       34
 146.6000       32
 146.6200       45
 146.6400       38
 146.6600       50
 146.6800       35
 146.7000       48
 146.7200       33
 146.7400       37
 146.7600       44
 146.7800       43
 146.8000       25
 146.8200       40
 146.8400       26
 146.8600       42
 146.8800       43
 146.9000       42
 146.9200       44
 146.9400       43
 146.9600       43
 146.9800       57
 147.0000       35
 147.0200       44
 147.0400       33
 147.0600       35
 147.0800       39
 147.1000       49
 147.1200       56
 147.1400       38
 147.1600       27
 147.1800       37
 147.2000       43
 147.2200       34
 147.2400       48
 147.2600       48
 147.2800       28
 147.3000       53
 147.3200       35
 147.3400       45
 147.3600       44
 147.3800       35
 147.4000       33
 147.4200       44
 147.4400       26
 147.4600       43
 147.4800       32
 147.5000       41
 147.5200       45
 147.5400       50
 147.5600       33
 147.5800       47
 147.6000       40
 147.6200       28
 147.6400       33
 147.6600       31
 147.6800       29
 147.7000       43
 147.7200       45
 147.7400       43
 147.7600       44
 147.7800       43
 147.8000       44
 147.8200       43
 147.8400       52
 147.8600       33
 147.8800       29
 147.9000       43
 147.9200       44
 147.9400       50
 147.9600       31
 147.9800       43
 148.0000       45
 148.0200       43
 148.0400       38
 148.0600       44
 148.0800       41
 148.1000       43
 148.1200       46
 148.1400       43
 148.1600       50
 148.1800       36
 148.2000       49
 148.2200       49
 148.2400       38
 148.2600       39
 148.2800       36
 148.3000       51
 148.3200       42
 148.3400       53
 148.3600       37
 148.3800       45
 148.4000       39
 148.4200       52
 148.4400       40
 148.4600       45
 148.4800       48
 148.5000       44
 148.5200       45
 148.5400       42
 148.5600       50
 148.5800       45
 148.6000       45
 148.6200       46
 148.6400       50
 148.6600       47
 148.6800       42
 148.7000       55
 148.7200       45
 148.7400       37
 148.7600       56
 148.7800       40
 148.8000       44
 148.8200       33
 148.8400       57
 148.8600       34
 148.8800       38
 148.9000       39
 148.9200       41
 148.9400       53
 148.9600       43
 148.9800       39
 149.0000       45
 149.0200       44
 149.0400       52
 149.0600       42
 149.0800       46
 149.1000       46
 149.1200       64
 149.1400       49
 149.1600       52
 149.1800       66
 149.2000       37
 149.2200       60
 149.2400       57
 149.2600       63
 149.2800       45
 149.3000       42
 149.3200       46
 149.3400       61
 149.3600       44
 149.3800       37
 149.4000       50
 149.4200       40
 149.4400       63
 149.4600       51
 149.4800       46
 149.5000       39
 149.5200       45
 149.5400       43
 149.5600       42
 149.5800       59
 149.6000       61
 149.6200       56
 149.6400       62
 149.6600       55
 149.6800       54
 149.7000       37
 149.7200       50
 149.7400       49
 149.7600       52
 149.7800       56
 149.8000       53
 149.8200       53
 149.8400       46
 149.8600       40
 149.8800       62
 149.9000       47
 149.9200       43
 149.9400       60
 149.9600       52
 149.9800       48
 150.0000       47
 150.0200       51
 150.0400       48
 150.0600       64
 150.0800       46
 150.1000       56
 150.1200       58
 150.1400       60
 150.1600       71
 150.1800       70
 150.2000       46
 150.2200       61
 150.2400       58
 150.2600       52
 150.2800       73
 150.3000       61
 150.3200       62
 150.3400       61
 150.3600       53
 150.3800       67
 150.4000       67
 150.4200       57
 150.4400       56
 150.4600       54
 150.4800       57
 150.5000       62
 150.5200       69
 150.5400       69
 150.5600       54
 150.5800       46
 150.6000       59
 150.6200       55
 150.6400       70
 150.6600       59
 150.6800       66
 150.7000       59
 150.7200       68
 150.7400       60
 150.7600       69
 150.7800       70
 150.8000       70
 150.8200       67
 150.8400       54
 150.8600       62
 150.8800       80
 150.9000       75
 150.9200       74
 150.9400       76
 150.9600       59
 150.9800       90
 151.0000       71
 151.0200       64
 151.0400       72
 151.0600       78
 151.0800       71
 151.1000       69
 151.1200       69
 151.1400       71
 151.1600       58
 151.1800       83
 151.2000       57
 151.2200       69
 151.2400       76
 151.2600       90
 151.2800       85
 151.3000       80
 151.3200       67
 151.3400       76
 151.3600       83
 151.3800       82
 151.4000       95
 151.4200       74
 151.4400       75
 151.4600       82
 151.4800       80
 151.5000       87
 151.5200       74
 151.5400       96
 151.5600       88
 151.5800       92
 151.6000       76
 151.6200       90
 151.6400      101
 151.6600       77
 151.6800      103
 151.7000       88
 151.7200       91
 151.7400       94
 151.7600       88
 151.7800       99
 151.8000      101
 151.8200       98
 151.8400       87
 151.8600       96
 151.8800      121
 151.9000       98
 151.9200      121
 151.9400      117
 151.9600      117
 151.9800      116
 152.0000      111
 152.0200      101
 152.0400      103
 152.0600      102
 152.0800      109
 152.1000      111
 152.1200      130
 152.1400      107
 152.1600      110
 152.1800      140
 152.2000      118
 152.2200      113
 152.2400      114
 152.2600      126
 152.2800      127
 152.3000      130
 152.3200      125
 152.3400      140
 152.3600      139
 152.3800      154
 152.4000      117
 152.4200      142
 152.4400      158
 152.4600      144
 152.4800      158
 152.5000      128
 152.5200      153
 152.5400      142
 152.5600      155
 152.5800      163
 152.6000      162
 152.6200      142
 152.6400      182
 152.6600      185
 152.6800      172
 152.7000      158
 152.7200      155
 152.7400      177
 152.7600      168
 152.7800      153
 152.8000      201
 152.8200      181
 152.8400      190
 152.8600      181
 152.8800      181
 152.9000      190
 152.9200      191
 152.9400      203
 152.9600      188
 152.9800      205
 153.0000      198
 153.0200      212
 153.0400      192
 153.0600      227
 153.0800      214
 153.1000      214
 153.1200      224
 153.1400      226
 153.1600      231
 153.1800      214
 153.2000      254
 153.2200      248
 153.2400      226
 153.2600      254
 153.2800      241
 153.3000      265
 153.3200      256
 153.3400      244
 153.3600      273
 153.3800      301
 153.4000      281
 153.4200      279
 153.4400      280
 153.4600      321
 153.4800      300
 153.5000      288
 153.5200      287
 153.5400      305
 153.5600      345
 153.5800      326
 153.6000      341
 153.6200      332
 153.6400      349
 153.6600      341
 153.6800      355
 153.7000      366
 153.7200      367
 153.7400      354
 153.7600      331
 153.7800      377
 153.8000      344
 153.8200      431
 153.8400      371
 153.8600      398
 153.8800      382
 153.9000      393
 153.9200      381
 153.9400      411
 153.9600      414
 153.9800      410
 154.0000      438
 154.0200      417
 154.0400      396
 154.0600      404
 154.0800      424
 154.1000      374
 154.1200      412
 154.1400      451
 154.1600      440
 154.1800      412
 154.2000      448
 154.2200      460
 154.2400      451
 154.2600      447
 154.2800      471
 154.3000      468
 154.3200      438
 154.3400      466
 154.3600      447
 154.3800      423
 154.4000      461
 154.4200      462
 154.4400      438
 154.4600      456
 154.4800      500
 154.5000      532
 154.5200      462
 154.5400      514
 154.5600      523
 154.5800      486
 154.6000      442
 154.6200      450
 154.6400      486
 154.6600      463
 154.6800      482
 154.7000      478
 154.7200      456
 154.7400      462
 154.7600      486
 154.7800      469
 154.8000      464
 154.8200      430
 154.8400      453
 154.8600      491
 154.8800      437
 154.9000      486
 154.9200      467
 154.9400      463
 154.9600      479
 154.9800      450
 155.0000      462