File: XRD_Tool/XRD_Tool/bin/Debug/SDD_sample_name_01234_Psi-15_20180602-101701.txt
 145.0000       48
 145.0000       48
 145.0200       49
 145.0400       46
 145.0200       49
 145.0400       46
 145.0600       29
 145.0800       35
 145.0600       29
 145.0800       35
 145.1000       34
 145.1200       34
 145.1000       34
 145.1200       34
 145.1400       41
 145.1600       45
 145.1400       41
 145.1600       45
 145.1800       42
 145.2000       40
 145.1800       42
 145.2000       40
 145.2200       48
 145.2400       38
 145.2200       48
 145.2400       38
 145.2600       36
 145.2800       47
 145.2600       36
 145.2800       47
 145.3000       32
 145.3200       41
 145.3000       32
 145.3200       41
 145.3400       30
 145.3600       37
 145.3400       30
 145.3600       37
 145.3800       30
 145.4000       45
 145.3800       30
 145.4000       45
 145.4200       45
 145.4400       39
 145.4200       45
 145.4400       39
 145.4600       36
 145.4800       45
 145.4600       36
 145.4800       45
 145.5000       30
 145.5200       36
 145.5000       30
 145.5200       36
 145.5400       35
 145.5600       38
 145.5400       35
 145.5600       38
 145.5800       32
 145.6000       42
 145.5800       32
 145.6000       42
 145.6200       35
 145.6400       56
 145.6200       35
 145.6400       56
 145.6600       32
 145.6800       40
 145.6600       32
 145.6800       40
 145.7000       30
 145.7200       31
 145.7000       30
 145.7200       31
 145.7400       35
 145.7600       38
 145.7400       35
 145.7600       38
 145.7800       32
 145.8000       44
 145.7800       32
 145.8000       44
 145.8200       22
 145.8400       28
 145.8200       22
 145.8400       28
 145.8600       44
 145.8800       33
 145.8600       44
 145.8800       33
 145.9000       46
 145.9200       42
 145.9000       46
 145.9200       42
 145.9400       47
 145.9600       43
 145.9400       47
 145.9600       43
 145.9800       56
 146.0000       38
 145.9800       56
 146.0000       38
 146.0200       42
 146.0400       30
 146.0200       42
 146.0400       30
 146.0600       35
 146.0800       30
 146.0600       35
 146.0800       30
 146.1000       36
 146.1200       47
 146.1000       36
 146.1200       47
 146.1400       43
 146.1600       38
 146.1400       43
 146.1600       38
 146.1800       45
 146.2000       45
 146.1800       45
 146.2000       45
 146.2200       37
 146.2400       28
 146.2200       37
 146.2400       28
 146.2600       33
 146.2800       38
 146.2600       33
 146.2800       38
 146.3000       40
 146.3200       46
 146.3000       40
 146.3200       46
 146.3400       34
 146.3600       35
 146.3400       34
 146.3600       35
 146.3800       45
 146.4000       28
 146.3800       45
 146.4000       28
 146.4200       41
 146.4400       39
 146.4200       41
 146.4400       39
 146.4600       42
 146.4800       37
 146.4600       42
 146.4800       37
 146.5000       39
 146.5200       57
 146.5400       38
 146.5000       39
 146.5200       57
 146.5400       38
 146.5600       48
 146.5800       34
 146.5600       48
 146.5800       34
 146.6000       47
 146.6200       36
 146.6000       47
 146.6200       36
 146.6400       44
 146.6600       39
 146.6400       44
 146.6600       39
 146.6800       52
 146.7000       35
 146.6800       52
 146.7000       35
 146.7200       42
 146.7400       45
 146.7200       42
 146.7400       45
 146.7600       37
 146.7800       42
 146.7600       37
 146.7800       42
 146.8000       40
 146.8200       42
 146.8000       40
 146.8200       42
 146.8400       37
 146.8600       50
 146.8400       37
 146.8600       50
 146.8800       38
 146.9000       38
 146.8800       38
 146.9000       38
 146.9200       41
 146.9400       37
 146.9200       41
 146.9400       37
 146.9600       34
 146.9800       37
 146.9600       34
 146.9800       37
 147.0000       35
 147.0200       40
 147.0000       35
 147.0200       40
 147.0400       35
 147.0600       34
 147.0400       35
 147.0600       34
 147.0800       41
 147.1000       42
 147.0800       41
 147.1000       42
 147.1200       32
 147.1400       46
 147.1200       32
 147.1400       46
 147.1600       31
 147.1800       35
 147.1600       31
 147.1800       35
 147.2000       35
 147.2200       28
 147.2000       35
 147.2200       28
 147.2400       53
 147.2600       41
 147.2400       53
 147.2600       41
 147.2800       57
 147.3000       32
 147.2800       57
 147.3000       32
 147.3200       48
 147.3400       44
 147.3200       48
 147.3400       44
 147.3600       37
 147.3800       29
 147.3600       37
 147.3800       29
 147.4000       41
 147.4200       36
 147.4000       41
 147.4200       36
 147.4400       49
 147.4600       41
 147.4800       48
 147.4400       49
 147.4600       41
 147.4800       48
 147.5000       38
 147.5200       34
 147.5000       38
 147.5200       34
 147.5400       42
 147.5600       51
 147.5400       42
 147.5600       51
 147.5800       51
 147.6000       43
 147.5800       51
 147.6000       43
 147.6200       39
 147.6400       45
 147.6200       39
 147.6400       45
 147.6600       47
 147.6800       49
 147.6600       47
 147.6800       49
 147.7000       40
 147.7200       52
 147.7000       40
 147.7200       52
 147.7400       44
 147.7600       47
 147.7400       44
 147.7600       47
 147.7800       42
 147.8000       36
 147.7800       42
 147.8000       36
 147.8200       42
 147.8400       40
 147.8200       42
 147.8400       40
 147.8600       42
 147.8800       45
 147.8600       42
 147.8800       45
 147.9000       39
 147.9200       49
 147.9000       39
 147.9200       49
 147.9400       39
 147.9600       42
 147.9400       39
 147.9600       42
 147.9800       46
 148.0000       48
 147.9800       46
 148.0000       48
 148.0200       36
 148.0400       37
 148.0200       36
 148.0400       37
 148.0600       46
 148.0800       35
 148.0600       46
 148.0800       35
 148.1000       42
 148.1200       48
 148.1000       42
 148.1200       48
 148.1400       47
 148.1600       34
 148.1400       47
 148.1600       34
 148.1800       44
 148.2000       51
 148.1800       44
 148.2000       51
 148.2200       39
 148.2400       49
 148.2600       44
 148.2200       39
 148.2400       49
 148.2600       44
 148.2800       36
 148.3000       40
 148.2800       36
 148.3000       40
 148.3200       50
 148.3400       42
 148.3200       50
 148.3400       42
 148.3600       36
 148.3800       39
 148.3600       36
 148.3800       39
 148.4000       42
 148.4200       54
 148.4000       42
 148.4200       54
 148.4400       45
 148.4600       51
 148.4400       45
 148.4600       51
 148.4800       27
 148.5000       50
 148.4800       27
 148.5000       50
 148.5200       46
 148.5400       48
 148.5200       46
 148.5400       48
 148.5600       42
 148.5800       50
 148.5600       42
 148.5800       50
 148.6000       41
 148.6200       34
 148.6000       41
 148.6200       34
 148.6400       44
 148.6600       43
 148.6400       44
 148.6600       43
 148.6800       48
 148.7000       38
 148.6800       48
 148.7000       38
 148.7200       52
 148.7400       55
 148.7200       52
 148.7400       55
 148.7600       54
 148.7800       50
 148.7600       54
 148.7800       50
 148.8000       39
 148.8200       43
 148.8000       39
 148.8200       43
 148.8400       55
 148.8600       47
 148.8400       55
 148.8600       47
 148.8800       47
 148.9000       45
 148.8800       47
 148.9000       45
 148.9200       40
 148.9400       50
 148.9200       40
 148.9400       50
 148.9600       42
 148.9800       44
 148.9600       42
 148.9800       44
 149.0000       43
 149.0200       52
 149.0000       43
 149.0200       52
 149.0400       40
 149.0600       43
 149.0400       40
 149.0600       43
 149.0800       40
 149.1000       48
 149.0800       40
 149.1000       48
 149.1200       38
 149.1400       57
 149.1200       38
 149.1400       57
 149.1600       48
 149.1800       47
 149.1800       47
 149.2000       53
 149.2200       43
 149.2200       43
 149.2400       54
 149.2600       44
 149.2800       52
 149.2400       54
 149.2600       44
 149.2800       52
 149.3000       54
 149.3200       42
 149.3000       54
 149.3200       42
 149.3400       56
 149.3600       52
 149.3400       56
 149.3600       52
 149.3800       45
 149.4000       45
 149.3800       45
 149.4000       45
 149.4200       50
 149.4400       61
 149.4200       50
 149.4400       61
 149.4600       57
 149.4800       55
 149.4600       57
 149.4800       55
 149.5000       49
 149.5200       43
 149.5000       49
 149.5200       43
 149.5400       47
 149.5600       57
 149.5400       47
 149.5600       57
 149.5800       48
 149.6000       53
 149.5800       48
 149.6000       53
 149.6200       67
 149.6400       52
 149.6200       67
 149.6400       52
 149.6600       45
 149.6800       49
 149.6600       45
 149.6800       49
 149.7000       50
 149.7200       40
 149.7000       50
 149.7200       40
 149.7400       44
 149.7600       49
 149.7400       44
 149.7600       49
 149.7800       55
 149.8000       57
 149.8200       56
 149.7800       55
 149.8000       57
 149.8200       56
 149.8400       46
 149.8600       45
 149.8400       46
 149.8600       45
 149.8800       54
 149.9000       57
 149.8800       54
 149.9000       57
 149.9200       57
 149.9400       67
 149.9200       57
 149.9400       67
 149.9600       54
 149.9800       50
 149.9600       54
 149.9800       50
 150.0000       45
 150.0200       49
 150.0000       45
 150.0200       49