File: XRD_Tool/XRD_Tool/bin/Debug/SDD_sample_name_01234_Psi-30_20180602-095612.txt
 145.0000       37
 145.0200       33
 145.0400       36
 145.0600       38
 145.0800       33
 145.1000       41
 145.1200       41
 145.1400       42
 145.1600       33
 145.1800       25
 145.2000       40
 145.2200       32
 145.2400       44
 145.2600       37
 145.2800       40
 145.3000       47
 145.3200       44
 145.3400       42
 145.3600       37
 145.3800       31
 145.4000       39
 145.4200       28
 145.4400       34
 145.4600       37
 145.4800       41
 145.5000       44
 145.5200       39
 145.5400       33
 145.5600       45
 145.5800       33
 145.6000       43
 145.6200       40
 145.6400       26
 145.6600       37
 145.6800       38
 145.7000       34
 145.7200       37
 145.7400       50
 145.7600       42
 145.7800       30
 145.8000       32
 145.8200       33
 145.8400       41
 145.8600       44
 145.8800       38
 145.9000       30
 145.9200       41
 145.9400       45
 145.9600       31
 145.9800       33
 146.0000       30
 146.0200       42
 146.0400       34
 146.0600       42
 146.0800       36
 146.1000       42
 146.1200       35
 146.1400       37
 146.1600       34
 146.1800       38
 146.2000       37
 146.2200       40
 146.2400       41
 146.2600       41
 146.2800       33
 146.3000       39
 146.3200       32
 146.3400       42
 146.3600       44
 146.3800       48
 146.4000       41
 146.4200       39
 146.4400       43
 146.4600       37
 146.4800       40
 146.5000       31
 146.5200       39
 146.5400       38
 146.5600       48
 146.5800       39
 146.6000       38
 146.6200       27
 146.6400       36
 146.6600       33
 146.6800       38
 146.7000       42
 146.7200       50
 146.7400       45
 146.7600       31
 146.7800       37
 146.8000       36
 146.8200       35
 146.8400       46
 146.8600       37
 146.8800       46
 146.9000       33
 146.9200       35
 146.9400       39
 146.9600       39
 146.9800       35
 147.0000       42
 147.0200       54
 147.0400       34
 147.0600       44
 147.0800       43
 147.1000       40
 147.1200       38
 147.1400       26
 147.1600       32
 147.1800       43
 147.2000       47
 147.2200       41
 147.2400       39
 147.2600       37
 147.2800       31
 147.3000       39
 147.3200       45
 147.3400       37
 147.3600       46
 147.3800       38
 147.4000       37
 147.4200       39
 147.4400       42
 147.4600       39
 147.4800       38
 147.5000       40
 147.5200       30
 147.5400       40
 147.5600       37
 147.5800       35
 147.6000       39
 147.6200       40
 147.6400       30
 147.6600       34
 147.6800       35
 147.7000       38
 147.7200       33
 147.7400       32
 147.7600       46
 147.7800       44
 147.8000       43
 147.8200       33
 147.8400       36
 147.8600       43
 147.8800       41
 147.9000       48
 147.9200       39
 147.9400       37
 147.9600       35
 147.9800       37
 148.0000       44
 148.0200       46
 148.0400       40
 148.0600       30
 148.0800       51
 148.1000       42
 148.1200       41
 148.1400       37
 148.1600       42
 148.1800       41
 148.2000       32
 148.2200       41
 148.2400       39
 148.2600       50
 148.2800       46
 148.3000       36
 148.3200       42
 148.3400       42
 148.3600       35
 148.3800       37
 148.4000       40
 148.4200       46
 148.4400       33
 148.4600       48
 148.4800       40
 148.5000       39
 148.5200       41
 148.5400       34
 148.5600       44
 148.5800       40
 148.6000       39
 148.6200       44
 148.6400       45
 148.6600       37
 148.6800       47
 148.7000       30
 148.7200       52
 148.7400       38
 148.7600       43
 148.7800       41
 148.8000       43
 148.8200       48
 148.8400       55
 148.8600       44
 148.8800       39
 148.9000       51
 148.9200       43
 148.9400       43
 148.9600       54
 148.9800       32
 149.0000       46
 149.0200       39
 149.0400       41
 149.0600       56
 149.0800       51
 149.1000       42
 149.1200       39
 149.1400       51
 149.1600       32
 149.1800       38
 149.2000       56
 149.2200       51
 149.2400       42
 149.2600       43
 149.2800       48
 149.3000       42
 149.3200       42
 149.3400       42
 149.3600       45
 149.3800       35
 149.4000       43
 149.4200       55
 149.4400       42
 149.4600       42
 149.4800       35
 149.5000       41
 149.5200       51
 149.5400       55
 149.5600       48
 149.5800       39
 149.6000       43
 149.6200       46
 149.6400       39
 149.6600       54
 149.6800       56
 149.7000       46
 149.7200       49
 149.7400       54
 149.7600       53
 149.7800       40
 149.8000       38
 149.8200       60
 149.8400       51
 149.8600       48
 149.8800       55
 149.9000       51
 149.9200       51
 149.9400       50
 149.9600       58
 149.9800       42
 150.0000       43
 150.0200       45
 150.0400       52
 150.0600       42
 150.0800       37
 150.1000       44
 150.1200       47
 150.1400       62
 150.1600       46
 150.1800       43
 150.2000       55
 150.2200       53
 150.2400       54
 150.2600       46
 150.2800       50
 150.3000       55
 150.3200       58
 150.3400       43
 150.3600       50
 150.3800       50
 150.4000       58
 150.4200       44
 150.4400       57
 150.4600       61
 150.4800       49
 150.5000       70
 150.5200       56
 150.5400       52
 150.5600       55
 150.5800       61
 150.6000       57
 150.6200       40
 150.6400       46
 150.6600       51
 150.6800       52
 150.7000       61
 150.7200       69
 150.7400       63
 150.7600       60
 150.7800       55
 150.8000       67
 150.8200       46
 150.8400       53
 150.8600       50
 150.8800       72
 150.9000       67
 150.9200       56
 150.9400       73
 150.9600       57
 150.9800       64
 151.0000       55
 151.0200       60
 151.0400       65
 151.0600       44
 151.0800       56
 151.1000       63
 151.1200       60
 151.1400       70
 151.1600       76
 151.1800       69
 151.2000       59
 151.2200       79
 151.2400       57
 151.2600       74
 151.2800       53
 151.3000       65
 151.3200       60
 151.3400       58
 151.3600       79
 151.3800       63
 151.4000       57
 151.4200       65
 151.4400       71
 151.4600       64
 151.4800       57
 151.5000       73
 151.5200       63
 151.5400       55
 151.5600       55
 151.5800       79
 151.6000       71
 151.6200       78
 151.6400       68
 151.6600       73
 151.6800       69
 151.7000       79
 151.7200       78
 151.7400       80
 151.7600       89
 151.7800       76
 151.8000       92
 151.8200       83
 151.8400       79
 151.8600       87
 151.8800       69
 151.9000       85
 151.9200       80
 151.9400       74
 151.9600       88
 151.9800       89
 152.0000       88
 152.0200       89
 152.0400       92
 152.0600       99
 152.0800      111
 152.1000       86
 152.1200       91
 152.1400       88
 152.1600       91
 152.1800      102
 152.2000      104
 152.2200      108
 152.2400       92
 152.2600      100
 152.2800       96
 152.3000      103
 152.3200      104
 152.3400       97
 152.3600      113
 152.3800      106
 152.4000      103
 152.4200      111
 152.4400      111
 152.4600       90
 152.4800      104
 152.5000      102
 152.5200      101
 152.5400       90
 152.5600      134
 152.5800      124
 152.6000      134
 152.6200      106
 152.6400      117
 152.6600      145
 152.6800      133
 152.7000      128
 152.7200      133
 152.7400      109
 152.7600      149
 152.7800      127
 152.8000      155
 152.8200      128
 152.8400      148
 152.8600      117
 152.8800      144
 152.9000      150
 152.9200      143
 152.9400      144
 152.9600      152
 152.9800      161
 153.0000      165
 153.0200      157
 153.0400      159
 153.0600      153
 153.0800      147
 153.1000      177
 153.1200      157
 153.1400      140
 153.1600      139
 153.1800      171
 153.2000      184
 153.2200      201
 153.2400      167
 153.2600      195
 153.2800      181
 153.3000      199
 153.3200      182
 153.3400      205
 153.3600      200
 153.3800      201
 153.4000      213
 153.4200      211
 153.4400      211
 153.4600      227
 153.4800      192
 153.5000      224
 153.5200      223
 153.5400      226
 153.5600      221
 153.5800      216
 153.6000      250
 153.6200      250
 153.6400      247
 153.6600      228
 153.6800      242
 153.7000      251
 153.7200      256
 153.7400      250
 153.7600      252
 153.7800      258
 153.8000      279
 153.8200      253
 153.8400      265
 153.8600      296
 153.8800      277
 153.9000      307
 153.9200      293
 153.9400      273
 153.9600      293
 153.9800      264
 154.0000      299
 154.0200      265
 154.0400      330
 154.0600      332
 154.0800      346
 154.1000      347
 154.1200      327
 154.1400      349
 154.1600      330
 154.1800      354
 154.2000      320
 154.2200      326
 154.2400      356
 154.2600      371
 154.2800      335
 154.3000      318
 154.3200      352
 154.3400      327
 154.3600      350
 154.3800      386
 154.4000      373
 154.4200      360
 154.4400      384
 154.4600      357
 154.4800      383
 154.5000      388
 154.5200      407
 154.5400      383
 154.5600      390
 154.5800      379
 154.6000      412
 154.6200      387
 154.6400      396
 154.6600      421
 154.6800      418
 154.7000      380
 154.7200      414
 154.7400      396
 154.7600      399
 154.7800      396
 154.8000      441
 154.8200      416
 154.8400      402
 154.8600      404
 154.8800      438
 154.9000      418
 154.9200      412
 154.9400      449
 154.9600      424
 154.9800      441
 155.0000      442