File: XRD_Tool/XRD_Tool/bin/Debug/SDD_sample_name_001_Psi-0_20180528-025055.txt
 150.0000       64
 150.0200       46
 150.0400       50
 150.0600       64
 150.0800       66
 150.1000       58
 150.1200       59
 150.1400       70
 150.1600       62
 150.1800       64
 150.2000       55
 150.2200       58
 150.2400       78
 150.2600       74
 150.2800       60
 150.3000       71
 150.3200       73
 150.3400       72
 150.3600       73
 150.3800       67
 150.4000       65
 150.4200       65
 150.4400       62
 150.4600       56
 150.4800       74
 150.5000       75
 150.5200       63
 150.5400       76
 150.5600       58
 150.5800       73
 150.6000       76
 150.6200       77
 150.6400       55
 150.6600       81
 150.6800       72
 150.7000       79
 150.7200       68
 150.7400       80
 150.7600       62
 150.7800       69
 150.8000       64
 150.8200       79
 150.8400       75
 150.8600       78
 150.8800       77
 150.9000       62
 150.9200       80
 150.9400       67
 150.9600       84
 150.9800       86
 151.0000       87
 151.0200       83
 151.0400       67
 151.0600      106
 151.0800       76
 151.1000       71
 151.1200       90
 151.1400       67
 151.1600       90
 151.1800       82
 151.2000       75
 151.2200       74
 151.2400       95
 151.2600       89
 151.2800       77
 151.3000       91
 151.3200       96
 151.3400       90
 151.3600       82
 151.3800       98
 151.4000       98
 151.4200      106
 151.4400       92
 151.4600      106
 151.4800       84
 151.5000       79
 151.5200       86
 151.5400       87
 151.5600       96
 151.5800      106
 151.6000       96
 151.6200       82
 151.6400      106
 151.6600       96
 151.6800       80
 151.7000       93
 151.7200       93
 151.7400      105
 151.7600      110
 151.7800      120
 151.8000      116
 151.8200       99
 151.8400       94
 151.8600      109
 151.8800      101
 151.9000      105
 151.9200      114
 151.9400       93
 151.9600      127
 151.9800      140
 152.0000      122
 152.0200       87
 152.0400      105
 152.0600      109
 152.0800      129
 152.1000      107
 152.1200      120
 152.1400      109
 152.1600      108
 152.1800      126
 152.2000      103
 152.2200      119
 152.2400      127
 152.2600      135
 152.2800      133
 152.3000      137
 152.3200      137
 152.3400      133
 152.3600      126
 152.3800      135
 152.4000      139
 152.4200      124
 152.4400      137
 152.4600      125
 152.4800      165
 152.5000      163
 152.5200      139
 152.5400      143
 152.5600      153
 152.5800      160
 152.6000      140
 152.6200      125
 152.6400      153
 152.6600      180
 152.6800      167
 152.7000      163
 152.7200      156
 152.7400      152
 152.7600      187
 152.7800      199
 152.8000      173
 152.8200      170
 152.8400      174
 152.8600      193
 152.8800      162
 152.9000      186
 152.9200      182
 152.9400      193
 152.9600      194
 152.9800      191
 153.0000      189
 153.0200      220
 153.0400      201
 153.0600      192
 153.0800      225
 153.1000      206
 153.1200      239
 153.1400      214
 153.1600      250
 153.1800      222
 153.2000      234
 153.2200      234
 153.2400      208
 153.2600      237
 153.2800      250
 153.3000      223
 153.3200      247
 153.3400      269
 153.3600      250
 153.3800      224
 153.4000      283
 153.4200      279
 153.4400      274
 153.4600      274
 153.4800      282
 153.5000      303
 153.5200      308
 153.5400      276
 153.5600      285
 153.5800      287
 153.6000      314
 153.6200      314
 153.6400      311
 153.6600      308
 153.6800      327
 153.7000      341
 153.7200      307
 153.7400      327
 153.7600      336
 153.7800      355
 153.8000      340
 153.8200      352
 153.8400      346
 153.8600      357
 153.8800      379
 153.9000      348
 153.9200      363
 153.9400      373
 153.9600      412
 153.9800      364
 154.0000      372
 154.0200      384
 154.0400      382
 154.0600      413
 154.0800      423
 154.1000      394
 154.1200      407
 154.1400      409
 154.1600      403
 154.1800      428
 154.2000      424
 154.2200      397
 154.2400      404
 154.2600      455
 154.2800      434
 154.3000      460
 154.3200      436
 154.3400      417
 154.3600      465
 154.3800      453
 154.4000      420
 154.4200      478
 154.4400      441
 154.4600      445
 154.4800      437
 154.5000      422
 154.5200      463
 154.5400      460
 154.5600      437
 154.5800      504
 154.6000      478
 154.6200      432
 154.6400      477
 154.6600      445
 154.6800      481
 154.7000      437
 154.7200      477
 154.7400      516
 154.7600      476
 154.7800      434
 154.8000      475
 154.8200      435
 154.8400      492
 154.8600      491
 154.8800      453
 154.9000      480
 154.9200      476
 154.9400      487
 154.9600      497
 154.9800      484
 155.0000      473
 155.0200      469
 155.0400      455
 155.0600      445
 155.0800      421
 155.1000      444
 155.1200      451
 155.1400      431
 155.1600      423
 155.1800      473
 155.2000      477
 155.2200      414
 155.2400      458
 155.2600      481
 155.2800      434
 155.3000      436
 155.3200      445
 155.3400      456
 155.3600      428
 155.3800      424
 155.4000      426
 155.4200      436
 155.4400      416
 155.4600      407
 155.4800      402
 155.5000      401
 155.5200      416
 155.5400      367
 155.5600      382
 155.5800      366
 155.6000      394
 155.6200      355
 155.6400      379
 155.6600      374
 155.6800      361
 155.7000      357
 155.7200      396
 155.7400      369
 155.7600      358
 155.7800      335
 155.8000      340
 155.8200      351
 155.8400      353
 155.8600      327
 155.8800      334
 155.9000      358
 155.9200      350
 155.9400      356
 155.9600      296
 155.9800      308
 156.0000      292
 156.0200      309
 156.0400      311
 156.0600      308
 156.0800      314
 156.1000      325
 156.1200      305
 156.1400      306
 156.1600      294
 156.1800      270
 156.2000      270
 156.2200      304
 156.2400      278
 156.2600      256
 156.2800      278
 156.3000      310
 156.3200      269
 156.3400      250
 156.3600      248
 156.3800      286
 156.4000      261
 156.4200      248
 156.4400      250
 156.4600      242
 156.4800      257
 156.5000      258
 156.5200      238
 156.5400      202
 156.5600      261
 156.5800      242
 156.6000      234
 156.6200      207
 156.6400      222
 156.6600      214
 156.6800      225
 156.7000      244
 156.7200      215
 156.7400      193
 156.7600      222
 156.7800      233
 156.8000      222
 156.8200      196
 156.8400      192
 156.8600      218
 156.8800      200
 156.9000      203
 156.9200      177
 156.9400      211
 156.9600      194
 156.9800      181
 157.0000      171
 157.0200      188
 157.0400      194
 157.0600      172
 157.0800      186
 157.1000      192
 157.1200      180
 157.1400      169
 157.1600      185
 157.1800      179
 157.2000      169
 157.2200      174
 157.2400      154
 157.2600      137
 157.2800      154
 157.3000      173
 157.3200      155
 157.3400      167
 157.3600      153
 157.3800      152
 157.4000      160
 157.4200      162
 157.4400      173
 157.4600      139
 157.4800      159
 157.5000      155
 157.5200      156
 157.5400      138
 157.5600      134
 157.5800      128
 157.6000      154
 157.6200      136
 157.6400      132
 157.6600      137
 157.6800      123
 157.7000      111
 157.7200      179
 157.7400      135
 157.7600      152
 157.7800      111
 157.8000      114
 157.8200      127
 157.8400      129
 157.8600      134
 157.8800      126
 157.9000      117
 157.9200      136
 157.9400      141
 157.9600      125
 157.9800      133
 158.0000      110
 158.0200      109
 158.0400      119
 158.0600      134
 158.0800      113
 158.1000      113
 158.1200       96
 158.1400       91
 158.1600      124
 158.1800      127
 158.2000      111
 158.2200      106
 158.2400      102
 158.2600      109
 158.2800       99
 158.3000      106
 158.3200      123
 158.3400      106
 158.3600      100
 158.3800      116
 158.4000      122
 158.4200      108
 158.4400      115
 158.4600       98
 158.4800       97
 158.5000      110
 158.5200      102
 158.5400       92
 158.5600      109
 158.5800       86
 158.6000       83
 158.6200      108
 158.6400       81
 158.6600      108
 158.6800       70
 158.7000      108
 158.7200       85
 158.7400       92
 158.7600       95
 158.7800       82
 158.8000       92
 158.8200      105
 158.8400       85
 158.8600       99
 158.8800       90
 158.9000      110
 158.9200       87
 158.9400       96
 158.9600       85
 158.9800       89
 159.0000       97
 159.0200       94
 159.0400       93
 159.0600       83
 159.0800       96
 159.1000       92
 159.1200       77
 159.1400       88
 159.1600       96
 159.1800       92
 159.2000       96
 159.2200       85
 159.2400       57
 159.2600       84
 159.2800       84
 159.3000       99
 159.3200       94
 159.3400      100
 159.3600       99
 159.3800       96
 159.4000       83
 159.4200       82
 159.4400       91
 159.4600       76
 159.4800       76
 159.5000      105
 159.5200       69
 159.5400      100
 159.5600       76
 159.5800       86
 159.6000       83
 159.6200       70
 159.6400       78
 159.6600       82
 159.6800       83
 159.7000       86
 159.7200       94
 159.7400       77
 159.7600       77
 159.7800       89
 159.8000       93
 159.8200       76
 159.8400       73
 159.8600       76
 159.8800       58
 159.9000       70
 159.9200       67
 159.9400       63
 159.9600       67
 159.9800       73
 160.0000       69