File: XRD_Tool/XRD_Tool/bin/Debug/SDD_sample_name_001_Psi-15_20180528-025140.txt
 150.0000       52
 150.0200       64
 150.0400       66
 150.0600       67
 150.0800       72
 150.1000       71
 150.1200       76
 150.1400       66
 150.1600       67
 150.1800       69
 150.2000       72
 150.2200       67
 150.2400       67
 150.2600       69
 150.2800       72
 150.3000       70
 150.3200       60
 150.3400       69
 150.3600       63
 150.3800       76
 150.4000       66
 150.4200       74
 150.4400       86
 150.4600       80
 150.4800       82
 150.5000       78
 150.5200       60
 150.5400       66
 150.5600       95
 150.5800       64
 150.6000       77
 150.6200       76
 150.6400       84
 150.6600       68
 150.6800       78
 150.7000       72
 150.7200       63
 150.7400       55
 150.7600       70
 150.7800       78
 150.8000       79
 150.8200       69
 150.8400       75
 150.8600       60
 150.8800       79
 150.9000       80
 150.9200       91
 150.9400       66
 150.9600       72
 150.9800       72
 151.0000       92
 151.0200       95
 151.0400       81
 151.0600       88
 151.0800      100
 151.1000       81
 151.1200       80
 151.1400       75
 151.1600       83
 151.1800       98
 151.2000       84
 151.2200       88
 151.2400       84
 151.2600      102
 151.2800       77
 151.3000      113
 151.3200       94
 151.3400       86
 151.3600       96
 151.3800       95
 151.4000       99
 151.4200       92
 151.4400      116
 151.4600       74
 151.4800      102
 151.5000       85
 151.5200       97
 151.5400      124
 151.5600       83
 151.5800       97
 151.6000       90
 151.6200       94
 151.6400       94
 151.6600      117
 151.6800       71
 151.7000       88
 151.7200       97
 151.7400       98
 151.7600      103
 151.7800      127
 151.8000      101
 151.8200      101
 151.8400       97
 151.8600      117
 151.8800      109
 151.9000      128
 151.9200      105
 151.9400      108
 151.9600      105
 151.9800       93
 152.0000      112
 152.0200      120
 152.0400       98
 152.0600      118
 152.0800      108
 152.1000      118
 152.1200      103
 152.1400      113
 152.1600      128
 152.1800      130
 152.2000      119
 152.2200      137
 152.2400       99
 152.2600      115
 152.2800      113
 152.3000      137
 152.3200      123
 152.3400      117
 152.3600      121
 152.3800      140
 152.4000      146
 152.4200      133
 152.4400      125
 152.4600      130
 152.4800      112
 152.5000      136
 152.5200      138
 152.5400      138
 152.5600      159
 152.5800      154
 152.6000      167
 152.6200      167
 152.6400      173
 152.6600      164
 152.6800      156
 152.7000      152
 152.7200      172
 152.7400      156
 152.7600      135
 152.7800      166
 152.8000      176
 152.8200      182
 152.8400      185
 152.8600      149
 152.8800      164
 152.9000      183
 152.9200      175
 152.9400      183
 152.9600      186
 152.9800      205
 153.0000      191
 153.0200      181
 153.0400      196
 153.0600      194
 153.0800      182
 153.1000      205
 153.1200      219
 153.1400      232
 153.1600      208
 153.1800      223
 153.2000      216
 153.2200      219
 153.2400      230
 153.2600      220
 153.2800      233
 153.3000      238
 153.3200      251
 153.3400      241
 153.3600      227
 153.3800      241
 153.4000      239
 153.4200      240
 153.4400      254
 153.4600      256
 153.4800      265
 153.5000      274
 153.5200      280
 153.5400      288
 153.5600      251
 153.5800      283
 153.6000      300
 153.6200      261
 153.6400      285
 153.6600      290
 153.6800      306
 153.7000      320
 153.7200      295
 153.7400      330
 153.7600      330
 153.7800      326
 153.8000      302
 153.8200      317
 153.8400      332
 153.8600      354
 153.8800      371
 153.9000      390
 153.9200      369
 153.9400      345
 153.9600      336
 153.9800      377
 154.0000      378
 154.0200      403
 154.0400      378
 154.0600      389
 154.0800      369
 154.1000      391
 154.1200      389
 154.1400      371
 154.1600      396
 154.1800      417
 154.2000      427
 154.2200      366
 154.2400      430
 154.2600      413
 154.2800      401
 154.3000      443
 154.3200      392
 154.3400      407
 154.3600      442
 154.3800      414
 154.4000      414
 154.4200      466
 154.4400      463
 154.4600      457
 154.4800      476
 154.5000      444
 154.5200      475
 154.5400      458
 154.5600      438
 154.5800      454
 154.6000      455
 154.6200      466
 154.6400      462
 154.6600      469
 154.6800      427
 154.7000      447
 154.7200      453
 154.7400      510
 154.7600      489
 154.7800      481
 154.8000      456
 154.8200      469
 154.8400      454
 154.8600      455
 154.8800      492
 154.9000      523
 154.9200      450
 154.9400      469
 154.9600      477
 154.9800      493
 155.0000      486
 155.0200      475
 155.0400      445
 155.0600      480
 155.0800      474
 155.1000      460
 155.1200      482
 155.1400      461
 155.1600      433
 155.1800      450
 155.2000      420
 155.2200      453
 155.2400      453
 155.2600      405
 155.2800      490
 155.3000      457
 155.3200      444
 155.3400      403
 155.3600      427
 155.3800      411
 155.4000      429
 155.4200      432
 155.4400      440
 155.4600      446
 155.4800      386
 155.5000      462
 155.5200      412
 155.5400      408
 155.5600      426
 155.5800      395
 155.6000      405
 155.6200      417
 155.6400      391
 155.6600      415
 155.6800      408
 155.7000      373
 155.7200      388
 155.7400      364
 155.7600      351
 155.7800      366
 155.8000      356
 155.8200      395
 155.8400      392
 155.8600      354
 155.8800      366
 155.9000      357
 155.9200      368
 155.9400      356
 155.9600      327
 155.9800      344
 156.0000      337
 156.0200      332
 156.0400      342
 156.0600      342
 156.0800      313
 156.1000      309
 156.1200      334
 156.1400      306
 156.1600      314
 156.1800      306
 156.2000      289
 156.2200      318
 156.2400      303
 156.2600      281
 156.2800      298
 156.3000      292
 156.3200      269
 156.3400      288
 156.3600      282
 156.3800      289
 156.4000      277
 156.4200      267
 156.4400      265
 156.4600      282
 156.4800      255
 156.5000      244
 156.5200      249
 156.5400      257
 156.5600      245
 156.5800      284
 156.6000      265
 156.6200      229
 156.6400      227
 156.6600      230
 156.6800      241
 156.7000      234
 156.7200      227
 156.7400      229
 156.7600      213
 156.7800      253
 156.8000      199
 156.8200      194
 156.8400      203
 156.8600      229
 156.8800      189
 156.9000      221
 156.9200      192
 156.9400      221
 156.9600      207
 156.9800      221
 157.0000      226
 157.0200      193
 157.0400      210
 157.0600      192
 157.0800      188
 157.1000      194
 157.1200      166
 157.1400      179
 157.1600      166
 157.1800      172
 157.2000      159
 157.2200      178
 157.2400      145
 157.2600      167
 157.2800      152
 157.3000      178
 157.3200      171
 157.3400      158
 157.3600      132
 157.3800      159
 157.4000      144
 157.4200      166
 157.4400      144
 157.4600      141
 157.4800      149
 157.5000      163
 157.5200      151
 157.5400      141
 157.5600      137
 157.5800      144
 157.6000      145
 157.6200      138
 157.6400      152
 157.6600      150
 157.6800      147
 157.7000      135
 157.7200      140
 157.7400      137
 157.7600      143
 157.7800      113
 157.8000      140
 157.8200      151
 157.8400      124
 157.8600      133
 157.8800      147
 157.9000      108
 157.9200      152
 157.9400      116
 157.9600      126
 157.9800      113
 158.0000      131
 158.0200      116
 158.0400      131
 158.0600      129
 158.0800      125
 158.1000      126
 158.1200      125
 158.1400      125
 158.1600      115
 158.1800       95
 158.2000      123
 158.2200      132
 158.2400      136
 158.2600      123
 158.2800       97
 158.3000       92
 158.3200      106
 158.3400       94
 158.3600      103
 158.3800      107
 158.4000      121
 158.4200       96
 158.4400      115
 158.4600       98
 158.4800      100
 158.5000      101
 158.5200       96
 158.5400      103
 158.5600      104
 158.5800       99
 158.6000      118
 158.6200       97
 158.6400       99
 158.6600      105
 158.6800       88
 158.7000      111
 158.7200      105
 158.7400      104
 158.7600      105
 158.7800       87
 158.8000       98
 158.8200      102
 158.8400      107
 158.8600       98
 158.8800      102
 158.9000       96
 158.9200       91
 158.9400       86
 158.9600       92
 158.9800       99
 159.0000       97
 159.0200      105
 159.0400       86
 159.0600      101
 159.0800       86
 159.1000       86
 159.1200      101
 159.1400       81
 159.1600       80
 159.1800       82
 159.2000       87
 159.2200       87
 159.2400       86
 159.2600       96
 159.2800       88
 159.3000      102
 159.3200       88
 159.3400       89
 159.3600       89
 159.3800       95
 159.4000       90
 159.4200       68
 159.4400       85
 159.4600       90
 159.4800       86
 159.5000       75
 159.5200       89
 159.5400       93
 159.5600       66
 159.5800       76
 159.6000       77
 159.6200       80
 159.6400       79
 159.6600       78
 159.6800       82
 159.7000       69
 159.7200       78
 159.7400       80
 159.7600       79
 159.7800       80
 159.8000       74
 159.8200       85
 159.8400       78
 159.8600       80
 159.8800       74
 159.9000       97
 159.9200       71
 159.9400       69
 159.9600       75
 159.9800       88
 160.0000       80