File: XRD_Tool/XRD_Tool/bin/Debug/SDD_sample_name_001_Psi-30_20180528-025224.txt
 150.0000       62
 150.0200       56
 150.0400       44
 150.0600       51
 150.0800       82
 150.1000       49
 150.1200       64
 150.1400       55
 150.1600       63
 150.1800       68
 150.2000       61
 150.2200       63
 150.2400       56
 150.2600       59
 150.2800       76
 150.3000       78
 150.3200       72
 150.3400       69
 150.3600       68
 150.3800       58
 150.4000       53
 150.4200       78
 150.4400       60
 150.4600       80
 150.4800       65
 150.5000       68
 150.5200       83
 150.5400       61
 150.5600       56
 150.5800       60
 150.6000       59
 150.6200       72
 150.6400       62
 150.6600       71
 150.6800       69
 150.7000       49
 150.7200       56
 150.7400       77
 150.7600       74
 150.7800       72
 150.8000       76
 150.8200       62
 150.8400       58
 150.8600       70
 150.8800       68
 150.9000       76
 150.9200       69
 150.9400       64
 150.9600       79
 150.9800       75
 151.0000       70
 151.0200       69
 151.0400       68
 151.0600       65
 151.0800       72
 151.1000       55
 151.1200       70
 151.1400       73
 151.1600       75
 151.1800       69
 151.2000       60
 151.2200       74
 151.2400       77
 151.2600       84
 151.2800       89
 151.3000       67
 151.3200       78
 151.3400       80
 151.3600       85
 151.3800       77
 151.4000       80
 151.4200       83
 151.4400       92
 151.4600       88
 151.4800       73
 151.5000       82
 151.5200       91
 151.5400       93
 151.5600       86
 151.5800      111
 151.6000       83
 151.6200       96
 151.6400       71
 151.6600      104
 151.6800       91
 151.7000       79
 151.7200       94
 151.7400      106
 151.7600       94
 151.7800       94
 151.8000       86
 151.8200      104
 151.8400       94
 151.8600       93
 151.8800       94
 151.9000       89
 151.9200       87
 151.9400       89
 151.9600      104
 151.9800      103
 152.0000       88
 152.0200      103
 152.0400       86
 152.0600       99
 152.0800      100
 152.1000      109
 152.1200      106
 152.1400       99
 152.1600      111
 152.1800      105
 152.2000      106
 152.2200      100
 152.2400       96
 152.2600      103
 152.2800      108
 152.3000      118
 152.3200       98
 152.3400      102
 152.3600      107
 152.3800      111
 152.4000      110
 152.4200      102
 152.4400      110
 152.4600      121
 152.4800      120
 152.5000      122
 152.5200       95
 152.5400      137
 152.5600      137
 152.5800      118
 152.6000      142
 152.6200      122
 152.6400      130
 152.6600      125
 152.6800      118
 152.7000      135
 152.7200      126
 152.7400      122
 152.7600      125
 152.7800      151
 152.8000      138
 152.8200      132
 152.8400      155
 152.8600      139
 152.8800      128
 152.9000      151
 152.9200      158
 152.9400      143
 152.9600      159
 152.9800      152
 153.0000      167
 153.0200      160
 153.0400      164
 153.0600      165
 153.0800      174
 153.1000      178
 153.1200      148
 153.1400      145
 153.1600      170
 153.1800      187
 153.2000      207
 153.2200      173
 153.2400      173
 153.2600      195
 153.2800      206
 153.3000      186
 153.3200      195
 153.3400      210
 153.3600      182
 153.3800      196
 153.4000      218
 153.4200      212
 153.4400      207
 153.4600      240
 153.4800      218
 153.5000      206
 153.5200      221
 153.5400      244
 153.5600      215
 153.5800      206
 153.6000      246
 153.6200      216
 153.6400      257
 153.6600      271
 153.6800      228
 153.7000      262
 153.7200      246
 153.7400      254
 153.7600      276
 153.7800      249
 153.8000      289
 153.8200      249
 153.8400      269
 153.8600      283
 153.8800      267
 153.9000      292
 153.9200      275
 153.9400      287
 153.9600      307
 153.9800      311
 154.0000      296
 154.0200      285
 154.0400      297
 154.0600      310
 154.0800      306
 154.1000      321
 154.1200      298
 154.1400      322
 154.1600      350
 154.1800      364
 154.2000      339
 154.2200      327
 154.2400      344
 154.2600      328
 154.2800      344
 154.3000      335
 154.3200      368
 154.3400      367
 154.3600      368
 154.3800      396
 154.4000      386
 154.4200      381
 154.4400      370
 154.4600      369
 154.4800      379
 154.5000      396
 154.5200      396
 154.5400      382
 154.5600      424
 154.5800      371
 154.6000      399
 154.6200      423
 154.6400      378
 154.6600      401
 154.6800      403
 154.7000      391
 154.7200      395
 154.7400      385
 154.7600      436
 154.7800      432
 154.8000      425
 154.8200      411
 154.8400      442
 154.8600      407
 154.8800      476
 154.9000      417
 154.9200      435
 154.9400      434
 154.9600      424
 154.9800      438
 155.0000      445
 155.0200      425
 155.0400      455
 155.0600      413
 155.0800      440
 155.1000      421
 155.1200      438
 155.1400      428
 155.1600      464
 155.1800      419
 155.2000      438
 155.2200      407
 155.2400      428
 155.2600      460
 155.2800      428
 155.3000      447
 155.3200      402
 155.3400      416
 155.3600      424
 155.3800      409
 155.4000      444
 155.4200      414
 155.4400      469
 155.4600      418
 155.4800      408
 155.5000      406
 155.5200      427
 155.5400      422
 155.5600      392
 155.5800      421
 155.6000      422
 155.6200      396
 155.6400      392
 155.6600      403
 155.6800      394
 155.7000      420
 155.7200      383
 155.7400      349
 155.7600      382
 155.7800      405
 155.8000      382
 155.8200      401
 155.8400      364
 155.8600      388
 155.8800      365
 155.9000      368
 155.9200      339
 155.9400      361
 155.9600      385
 155.9800      382
 156.0000      348
 156.0200      330
 156.0400      372
 156.0600      339
 156.0800      326
 156.1000      336
 156.1200      349
 156.1400      305
 156.1600      342
 156.1800      329
 156.2000      336
 156.2200      329
 156.2400      343
 156.2600      306
 156.2800      347
 156.3000      298
 156.3200      278
 156.3400      282
 156.3600      302
 156.3800      326
 156.4000      280
 156.4200      289
 156.4400      286
 156.4600      269
 156.4800      280
 156.5000      275
 156.5200      275
 156.5400      272
 156.5600      266
 156.5800      269
 156.6000      257
 156.6200      272
 156.6400      267
 156.6600      259
 156.6800      273
 156.7000      261
 156.7200      242
 156.7400      233
 156.7600      244
 156.7800      247
 156.8000      211
 156.8200      231
 156.8400      248
 156.8600      217
 156.8800      214
 156.9000      224
 156.9200      213
 156.9400      218
 156.9600      212
 156.9800      224
 157.0000      208
 157.0200      192
 157.0400      227
 157.0600      192
 157.0800      214
 157.1000      210
 157.1200      205
 157.1400      200
 157.1600      186
 157.1800      236
 157.2000      189
 157.2200      200
 157.2400      201
 157.2600      196
 157.2800      181
 157.3000      199
 157.3200      193
 157.3400      198
 157.3600      177
 157.3800      164
 157.4000      178
 157.4200      169
 157.4400      153
 157.4600      170
 157.4800      184
 157.5000      169
 157.5200      177
 157.5400      171
 157.5600      171
 157.5800      143
 157.6000      168
 157.6200      152
 157.6400      150
 157.6600      145
 157.6800      155
 157.7000      137
 157.7200      173
 157.7400      147
 157.7600      141
 157.7800      137
 157.8000      165
 157.8200      152
 157.8400      130
 157.8600      139
 157.8800      112
 157.9000      139
 157.9200      130
 157.9400      136
 157.9600      112
 157.9800      131
 158.0000      136
 158.0200      133
 158.0400      107
 158.0600      140
 158.0800      117
 158.1000      137
 158.1200      124
 158.1400      141
 158.1600      142
 158.1800      118
 158.2000      121
 158.2200      124
 158.2400      120
 158.2600      124
 158.2800      102
 158.3000      105
 158.3200      129
 158.3400      113
 158.3600      114
 158.3800      115
 158.4000       98
 158.4200      105
 158.4400      111
 158.4600      115
 158.4800      132
 158.5000      133
 158.5200      134
 158.5400       99
 158.5600      106
 158.5800      101
 158.6000      110
 158.6200      119
 158.6400      131
 158.6600      100
 158.6800      110
 158.7000       96
 158.7200      110
 158.7400       88
 158.7600      102
 158.7800       99
 158.8000       97
 158.8200      103
 158.8400       97
 158.8600       83
 158.8800       88
 158.9000       92
 158.9200       87
 158.9400      103
 158.9600      100
 158.9800       93
 159.0000       96
 159.0200       94
 159.0400       96
 159.0600      127
 159.0800       99
 159.1000       80
 159.1200      105
 159.1400       94
 159.1600       77
 159.1800       64
 159.2000       92
 159.2200       96
 159.2400       79
 159.2600       86
 159.2800      101
 159.3000       92
 159.3200       83
 159.3400       86
 159.3600       80
 159.3800       86
 159.4000       74
 159.4200       93
 159.4400       85
 159.4600       86
 159.4800       92
 159.5000      104
 159.5200       99
 159.5400       93
 159.5600       69
 159.5800       80
 159.6000       76
 159.6200      102
 159.6400       79
 159.6600       70
 159.6800       71
 159.7000       83
 159.7200       86
 159.7400       76
 159.7600       85
 159.7800       78
 159.8000       88
 159.8200       77
 159.8400       82
 159.8600       83
 159.8800       79
 159.9000       88
 159.9200       83
 159.9400       70
 159.9600       76
 159.9800       69
 160.0000       61