File: XRD_Tool/XRD_Tool/bin/Debug/SDD_sample_name_01234_Psi-45_20180602-101358.txt
 145.0000       42
 145.0200       37
 145.0400       39
 145.0600       45
 145.0800       37
 145.1000       45
 145.1200       31
 145.1400       36
 145.1600       29
 145.1800       41
 145.2000       36
 145.2200       46
 145.2400       44
 145.2600       44
 145.2800       26
 145.3000       39
 145.3200       46
 145.3400       39
 145.3600       36
 145.3800       41
 145.4000       37
 145.4200       29
 145.4400       42
 145.4600       38
 145.4800       32
 145.5000       41
 145.5200       41
 145.5400       27
 145.5600       32
 145.5800       39
 145.6000       36
 145.6200       33
 145.6400       35
 145.6600       29
 145.6800       36
 145.7000       34
 145.7200       41
 145.7400       44
 145.7600       36
 145.7800       41
 145.8000       39
 145.8200       37
 145.8400       25
 145.8600       41
 145.8800       36
 145.9000       43
 145.9200       41
 145.9400       45
 145.9600       41
 145.9800       36
 146.0000       33
 146.0200       33
 146.0400       42
 146.0600       38
 146.0800       43
 146.1000       41
 146.1200       38
 146.1400       38
 146.1600       38
 146.1800       35
 146.2000       45
 146.2200       44
 146.2400       45
 146.2600       26
 146.2800       34
 146.3000       37
 146.3200       33
 146.3400       37
 146.3600       39
 146.3800       42
 146.4000       34
 146.4200       48
 146.4400       50
 146.4600       39
 146.4800       47
 146.5000       35
 146.5200       36
 146.5400       31
 146.5600       35
 146.5800       44
 146.6000       39
 146.6200       33
 146.6400       47
 146.6600       28
 146.6800       37
 146.7000       32
 146.7200       33
 146.7400       51
 146.7600       33
 146.7800       38
 146.8000       33
 146.8200       31
 146.8400       37
 146.8600       33
 146.8800       43
 146.9000       49
 146.9200       40
 146.9400       34
 146.9600       41
 146.9800       39
 147.0000       45
 147.0200       46
 147.0400       48
 147.0600       29
 147.0800       32
 147.1000       36
 147.1200       42
 147.1400       39
 147.1600       29
 147.1800       41
 147.2000       31
 147.2200       45
 147.2400       41
 147.2600       33
 147.2800       49
 147.3000       27
 147.3200       30
 147.3400       35
 147.3600       42
 147.3800       43
 147.4000       43
 147.4200       30
 147.4400       38
 147.4600       41
 147.4800       35
 147.5000       39
 147.5200       39
 147.5400       44
 147.5600       33
 147.5800       34
 147.6000       39
 147.6200       45
 147.6400       53
 147.6600       46
 147.6800       30
 147.7000       38
 147.7200       41
 147.7400       58
 147.7600       37
 147.7800       47
 147.8000       40
 147.8200       45
 147.8400       42
 147.8600       46
 147.8800       43
 147.9000       31
 147.9200       39
 147.9400       48
 147.9600       30
 147.9800       39
 148.0000       32
 148.0200       46
 148.0400       42
 148.0600       44
 148.0800       37
 148.1000       36
 148.1200       39
 148.1400       39
 148.1600       27
 148.1800       48
 148.2000       36
 148.2200       60
 148.2400       46
 148.2600       42
 148.2800       48
 148.3000       44
 148.3200       35
 148.3400       45
 148.3600       39
 148.3800       38
 148.4000       33
 148.4200       49
 148.4400       29
 148.4600       46
 148.4800       44
 148.5000       30
 148.5200       35
 148.5400       48
 148.5600       42
 148.5800       44
 148.6000       38
 148.6200       55
 148.6400       42
 148.6600       42
 148.6800       32
 148.7000       47
 148.7200       46
 148.7400       38
 148.7600       53
 148.7800       45
 148.8000       38
 148.8200       41
 148.8400       44
 148.8600       41
 148.8800       41
 148.9000       38
 148.9200       39
 148.9400       38
 148.9600       49
 148.9800       36
 149.0000       51
 149.0200       49
 149.0400       49
 149.0600       46
 149.0800       40
 149.1000       49
 149.1200       40
 149.1400       60
 149.1600       46
 149.1800       32
 149.2000       48
 149.2200       41
 149.2400       36
 149.2600       38
 149.2800       68
 149.3000       37
 149.3200       47
 149.3400       35
 149.3600       50
 149.3800       60
 149.4000       34
 149.4200       49
 149.4400       40
 149.4600       49
 149.4800       42
 149.5000       41
 149.5200       49
 149.5400       47
 149.5600       50
 149.5800       46
 149.6000       34
 149.6200       48
 149.6400       51
 149.6600       49
 149.6800       59
 149.7000       50
 149.7200       44
 149.7400       54
 149.7600       51
 149.7800       49
 149.8000       40
 149.8200       44
 149.8400       54
 149.8600       36
 149.8800       45
 149.9000       51
 149.9200       50
 149.9400       54
 149.9600       47
 149.9800       43
 150.0000       32
 150.0200       58
 150.0400       43
 150.0600       53
 150.0800       53
 150.1000       33
 150.1200       39
 150.1400       48
 150.1600       55
 150.1800       52
 150.2000       49
 150.2200       51
 150.2400       68
 150.2600       55
 150.2800       47
 150.3000       45
 150.3200       45
 150.3400       50
 150.3600       54
 150.3800       54
 150.4000       52
 150.4200       36
 150.4400       55
 150.4600       55
 150.4800       50
 150.5000       64
 150.5200       44
 150.5400       49
 150.5600       40
 150.5800       52
 150.6000       51
 150.6200       52
 150.6400       46
 150.6600       53
 150.6800       39
 150.7000       61
 150.7200       57
 150.7400       55
 150.7600       47
 150.7800       68
 150.8000       60
 150.8200       61
 150.8400       55
 150.8600       51
 150.8800       49
 150.9000       54
 150.9200       52
 150.9400       64
 150.9600       50
 150.9800       54
 151.0000       51
 151.0200       64
 151.0400       70
 151.0600       59
 151.0800       58
 151.1000       37
 151.1200       68
 151.1400       63
 151.1600       54
 151.1800       62
 151.2000       51
 151.2200       55
 151.2400       68
 151.2600       76
 151.2800       51
 151.3000       62
 151.3200       61
 151.3400       54
 151.3600       73
 151.3800       68
 151.4000       67
 151.4200       68
 151.4400       70
 151.4600       68
 151.4800       71
 151.5000       64
 151.5200       52
 151.5400       65
 151.5600       65
 151.5800       86
 151.6000       71
 151.6200       55
 151.6400       60
 151.6600       67
 151.6800       81
 151.7000       63
 151.7200       71
 151.7400       72
 151.7600       63
 151.7800       58
 151.8000       65
 151.8200       70
 151.8400       81
 151.8600       79
 151.8800       61
 151.9000       73
 151.9200       79
 151.9400       71
 151.9600       66
 151.9800       85
 152.0000       81
 152.0200       88
 152.0400       75
 152.0600       97
 152.0800       69
 152.1000       69
 152.1200       99
 152.1400       82
 152.1600      100
 152.1800       86
 152.2000       97
 152.2200       82
 152.2400       96
 152.2600       92
 152.2800       86
 152.3000       91
 152.3200       75
 152.3400       94
 152.3600       72
 152.3800       88
 152.4000       93
 152.4200       90
 152.4400       90
 152.4600       91
 152.4800       90
 152.5000      101
 152.5200      102
 152.5400      111
 152.5600      123
 152.5800      112
 152.6000      109
 152.6200      135
 152.6400      107
 152.6600      114
 152.6800      106
 152.7000      125
 152.7200      122
 152.7400      121
 152.7600       95
 152.7800      117
 152.8000      108
 152.8200      115
 152.8400      109
 152.8600      107
 152.8800      116
 152.9000      130
 152.9200      136
 152.9400      119
 152.9600      119
 152.9800      130
 153.0000      120
 153.0200      129
 153.0400      140
 153.0600      142
 153.0800      137
 153.1000      158
 153.1200      133
 153.1400      146
 153.1600      144
 153.1800      146
 153.2000      141
 153.2200      138
 153.2400      131
 153.2600      149
 153.2800      152
 153.3000      156
 153.3200      110
 153.3400      169
 153.3600      163
 153.3800      144
 153.4000      161
 153.4200      154
 153.4400      167
 153.4600      199
 153.4800      187
 153.5000      172
 153.5200      183
 153.5400      192
 153.5600      200
 153.5800      205
 153.6000      179
 153.6200      216
 153.6400      201
 153.6600      198
 153.6800      198
 153.7000      199
 153.7200      196
 153.7400      226
 153.7600      224
 153.7800      195
 153.8000      210
 153.8200      175
 153.8400      228
 153.8600      202
 153.8800      235
 153.9000      228
 153.9200      235
 153.9400      247
 153.9600      249
 153.9800      238
 154.0000      241
 154.0200      264
 154.0400      288
 154.0600      257
 154.0800      288
 154.1000      259
 154.1200      246
 154.1400      272
 154.1600      278
 154.1800      275
 154.2000      277
 154.2200      300
 154.2400      293
 154.2600      284
 154.2800      282
 154.3000      269
 154.3200      279
 154.3400      295
 154.3600      321
 154.3800      333
 154.4000      335
 154.4200      309
 154.4400      316
 154.4600      330
 154.4800      363
 154.5000      343
 154.5200      345
 154.5400      340
 154.5600      347
 154.5800      361
 154.6000      347
 154.6200      343
 154.6400      357
 154.6600      340
 154.6800      406
 154.7000      357
 154.7200      369
 154.7400      378
 154.7600      395
 154.7800      344
 154.8000      368
 154.8200      362
 154.8400      379
 154.8600      356
 154.8800      348
 154.9000      389
 154.9200      371
 154.9400      388
 154.9600      379
 154.9800      393
 155.0000      383