File: XRD_Tool/XRD_Tool/bin/Debug/SDD_sample_name_001_Psi-15_20180528-025831.txt
 145.0000       59
 145.0200       41
 145.0400       49
 145.0600       35
 145.0800       50
 145.1000       53
 145.1200       50
 145.1400       38
 145.1600       46
 145.1800       51
 145.2000       39
 145.2200       49
 145.2400       48
 145.2600       42
 145.2800       46
 145.3000       42
 145.3200       50
 145.3400       41
 145.3600       51
 145.3800       54
 145.4000       41
 145.4200       59
 145.4400       46
 145.4600       47
 145.4800       39
 145.5000       54
 145.5200       41
 145.5400       41
 145.5600       45
 145.5800       41
 145.6000       50
 145.6200       33
 145.6400       54
 145.6600       53
 145.6800       52
 145.7000       45
 145.7200       56
 145.7400       46
 145.7600       43
 145.7800       41
 145.8000       47
 145.8200       58
 145.8400       53
 145.8600       42
 145.8800       54
 145.9000       47
 145.9200       56
 145.9400       49
 145.9600       55
 145.9800       59
 146.0000       53
 146.0200       36
 146.0400       40
 146.0600       42
 146.0800       41
 146.1000       43
 146.1200       46
 146.1400       42
 146.1600       58
 146.1800       45
 146.2000       47
 146.2200       41
 146.2400       33
 146.2600       56
 146.2800       44
 146.3000       40
 146.3200       48
 146.3400       47
 146.3600       49
 146.3800       49
 146.4000       41
 146.4200       46
 146.4400       47
 146.4600       65
 146.4800       45
 146.5000       58
 146.5200       44
 146.5400       53
 146.5600       57
 146.5800       59
 146.6000       51
 146.6200       43
 146.6400       52
 146.6600       55
 146.6800       48
 146.7000       49
 146.7200       54
 146.7400       42
 146.7600       51
 146.7800       54
 146.8000       44
 146.8200       49
 146.8400       46
 146.8600       50
 146.8800       41
 146.9000       47
 146.9200       47
 146.9400       48
 146.9600       49
 146.9800       42
 147.0000       39
 147.0200       54
 147.0400       58
 147.0600       43
 147.0800       65
 147.1000       54
 147.1200       45
 147.1400       47
 147.1600       57
 147.1800       40
 147.2000       46
 147.2200       45
 147.2400       48
 147.2600       60
 147.2800       51
 147.3000       57
 147.3200       56
 147.3400       50
 147.3600       52
 147.3800       66
 147.4000       51
 147.4200       43
 147.4400       41
 147.4600       55
 147.4800       49
 147.5000       44
 147.5200       46
 147.5400       48
 147.5600       47
 147.5800       56
 147.6000       47
 147.6200       52
 147.6400       43
 147.6600       59
 147.6800       49
 147.7000       46
 147.7200       48
 147.7400       44
 147.7600       55
 147.7800       59
 147.8000       56
 147.8200       45
 147.8400       54
 147.8600       50
 147.8800       61
 147.9000       53
 147.9200       51
 147.9400       55
 147.9600       44
 147.9800       44
 148.0000       45
 148.0200       59
 148.0400       46
 148.0600       49
 148.0800       72
 148.1000       45
 148.1200       41
 148.1400       52
 148.1600       50
 148.1800       63
 148.2000       40
 148.2200       45
 148.2400       48
 148.2600       43
 148.2800       49
 148.3000       47
 148.3200       57
 148.3400       59
 148.3600       48
 148.3800       66
 148.4000       59
 148.4200       61
 148.4400       52
 148.4600       61
 148.4800       65
 148.5000       56
 148.5200       46
 148.5400       50
 148.5600       54
 148.5800       52
 148.6000       61
 148.6200       66
 148.6400       55
 148.6600       52
 148.6800       52
 148.7000       43
 148.7200       55
 148.7400       49
 148.7600       41
 148.7800       60
 148.8000       47
 148.8200       65
 148.8400       53
 148.8600       52
 148.8800       49
 148.9000       46
 148.9200       56
 148.9400       55
 148.9600       51
 148.9800       57
 149.0000       50
 149.0200       64
 149.0400       58
 149.0600       59
 149.0800       51
 149.1000       53
 149.1200       67
 149.1400       52
 149.1600       63
 149.1800       75
 149.2000       55
 149.2200       53
 149.2400       62
 149.2600       62
 149.2800       53
 149.3000       54
 149.3200       65
 149.3400       59
 149.3600       50
 149.3800       62
 149.4000       59
 149.4200       50
 149.4400       54
 149.4600       61
 149.4800       47
 149.5000       75
 149.5200       44
 149.5400       60
 149.5600       68
 149.5800       58
 149.6000       60
 149.6200       49
 149.6400       59
 149.6600       59
 149.6800       51
 149.7000       68
 149.7200       61
 149.7400       57
 149.7600       66
 149.7800       67
 149.8000       66
 149.8200       68
 149.8400       56
 149.8600       62
 149.8800       67
 149.9000       75
 149.9200       59
 149.9400       74
 149.9600       59
 149.9800       64
 150.0000       71
 150.0200       60
 150.0400       66
 150.0600       70
 150.0800       68
 150.1000       60
 150.1200       54
 150.1400       65
 150.1600       64
 150.1800       57
 150.2000       64
 150.2200       60
 150.2400       66
 150.2600       60
 150.2800       61
 150.3000       68
 150.3200       47
 150.3400       52
 150.3600       67
 150.3800       61
 150.4000       58
 150.4200       72
 150.4400       45
 150.4600       63
 150.4800       58
 150.5000       51
 150.5200       72
 150.5400       55
 150.5600       72
 150.5800       70
 150.6000       43
 150.6200       80
 150.6400       67
 150.6600       51
 150.6800       73
 150.7000       65
 150.7200       55
 150.7400       64
 150.7600       64
 150.7800       71
 150.8000       70
 150.8200       76
 150.8400       72
 150.8600       72
 150.8800       67
 150.9000       65
 150.9200       84
 150.9400       76
 150.9600       74
 150.9800       71
 151.0000       57
 151.0200       85
 151.0400       75
 151.0600       75
 151.0800       67
 151.1000       86
 151.1200       64
 151.1400       80
 151.1600       65
 151.1800       81
 151.2000       85
 151.2200       86
 151.2400       99
 151.2600       74
 151.2800       76
 151.3000       81
 151.3200       62
 151.3400       76
 151.3600       92
 151.3800       86
 151.4000       75
 151.4200       71
 151.4400       82
 151.4600       97
 151.4800       80
 151.5000       64
 151.5200       76
 151.5400       90
 151.5600       90
 151.5800       84
 151.6000       81
 151.6200       86
 151.6400       93
 151.6600       94
 151.6800       88
 151.7000      107
 151.7200       94
 151.7400       99
 151.7600      100
 151.7800      101
 151.8000       76
 151.8200       97
 151.8400       85
 151.8600      103
 151.8800       91
 151.9000      104
 151.9200      100
 151.9400       93
 151.9600      107
 151.9800      104
 152.0000      123
 152.0200       99
 152.0400       94
 152.0600      107
 152.0800       93
 152.1000       99
 152.1200      114
 152.1400      116
 152.1600       94
 152.1800      116
 152.2000      127
 152.2200      114
 152.2400      116
 152.2600      134
 152.2800      112
 152.3000      122
 152.3200      126
 152.3400      133
 152.3600      117
 152.3800      116
 152.4000      130
 152.4200      128
 152.4400      125
 152.4600      146
 152.4800      132
 152.5000      118
 152.5200      152
 152.5400      123
 152.5600      135
 152.5800      136
 152.6000      133
 152.6200      122
 152.6400      160
 152.6600      133
 152.6800      141
 152.7000      144
 152.7200      164
 152.7400      164
 152.7600      144
 152.7800      134
 152.8000      165
 152.8200      183
 152.8400      162
 152.8600      158
 152.8800      166
 152.9000      180
 152.9200      150
 152.9400      194
 152.9600      186
 152.9800      177
 153.0000      180
 153.0200      167
 153.0400      186
 153.0600      180
 153.0800      208
 153.1000      168
 153.1200      200
 153.1400      188
 153.1600      179
 153.1800      191
 153.2000      185
 153.2200      212
 153.2400      213
 153.2600      188
 153.2800      226
 153.3000      226
 153.3200      203
 153.3400      222
 153.3600      208
 153.3800      224
 153.4000      250
 153.4200      217
 153.4400      210
 153.4600      250
 153.4800      226
 153.5000      249
 153.5200      242
 153.5400      265
 153.5600      223
 153.5800      268
 153.6000      270
 153.6200      279
 153.6400      252
 153.6600      279
 153.6800      285
 153.7000      265
 153.7200      279
 153.7400      271
 153.7600      270
 153.7800      316
 153.8000      315
 153.8200      311
 153.8400      301
 153.8600      308
 153.8800      325
 153.9000      335
 153.9200      295
 153.9400      335
 153.9600      345
 153.9800      333
 154.0000      336
 154.0200      342
 154.0400      351
 154.0600      350
 154.0800      373
 154.1000      335
 154.1200      352
 154.1400      365
 154.1600      362
 154.1800      386
 154.2000      357
 154.2200      375
 154.2400      376
 154.2600      387
 154.2800      362
 154.3000      415
 154.3200      386
 154.3400      386
 154.3600      391
 154.3800      380
 154.4000      387
 154.4200      433
 154.4400      404
 154.4600      431
 154.4800      405
 154.5000      410
 154.5200      425
 154.5400      424
 154.5600      393
 154.5800      451
 154.6000      416
 154.6200      416
 154.6400      424
 154.6600      428
 154.6800      456
 154.7000      424
 154.7200      425
 154.7400      422
 154.7600      430
 154.7800      419
 154.8000      408
 154.8200      437
 154.8400      465
 154.8600      442
 154.8800      448
 154.9000      422
 154.9200      443
 154.9400      441
 154.9600      438
 154.9800      466
 155.0000      436