File: XRD_Tool/XRD_Tool/bin/Debug/SDD_sample_name_01234_Psi-15_20180602-103223.txt
 145.0000       38
 145.0200       40
 145.0400       29
 145.0600       43
 145.0800       38
 145.1000       32
 145.1200       28
 145.1400       37
 145.1600       44
 145.1800       42
 145.2000       36
 145.2200       33
 145.2400       52
 145.2600       23
 145.2800       34
 145.3000       35
 145.3200       29
 145.3400       38
 145.3600       43
 145.3800       30
 145.4000       36
 145.4200       42
 145.4400       35
 145.4600       32
 145.4800       38
 145.5000       40
 145.5200       38
 145.5400       44
 145.5600       24
 145.5800       38
 145.6000       27
 145.6200       34
 145.6400       21
 145.6600       36
 145.6800       35
 145.7000       38
 145.7200       40
 145.7400       35
 145.7600       33
 145.7800       41
 145.8000       31
 145.8200       44
 145.8400       35
 145.8600       37
 145.8800       27
 145.9000       39
 145.9200       29
 145.9400       27
 145.9600       36
 145.9800       41
 146.0000       36
 146.0200       35
 146.0400       42
 146.0600       38
 146.0800       46
 146.1000       34
 146.1200       27
 146.1400       43
 146.1600       33
 146.1800       29
 146.2000       39
 146.2200       47
 146.2400       42
 146.2600       38
 146.2800       33
 146.3000       41
 146.3200       35
 146.3400       50
 146.3600       40
 146.3800       45
 146.4000       42
 146.4200       40
 146.4400       35
 146.4600       41
 146.4800       39
 146.5000       40
 146.5200       45
 146.5400       39
 146.5600       47
 146.5800       31
 146.6000       40
 146.6200       37
 146.6400       24
 146.6600       42
 146.6800       40
 146.7000       37
 146.7200       33
 146.7400       38
 146.7600       41
 146.7800       30
 146.8000       39
 146.8200       37
 146.8400       44
 146.8600       28
 146.8800       30
 146.9000       36
 146.9200       33
 146.9400       37
 146.9600       37
 146.9800       32
 147.0000       31
 147.0200       44
 147.0400       35
 147.0600       37
 147.0800       29
 147.1000       43
 147.1200       36
 147.1400       42
 147.1600       43
 147.1800       44
 147.2000       31
 147.2200       31
 147.2400       42
 147.2600       51
 147.2800       40
 147.3000       44
 147.3200       36
 147.3400       44
 147.3600       34
 147.3800       30
 147.4000       37
 147.4200       25
 147.4400       22
 147.4600       31
 147.4800       53
 147.5000       33
 147.5200       31
 147.5400       30
 147.5600       29
 147.5800       50
 147.6000       45
 147.6200       53
 147.6400       43
 147.6600       35
 147.6800       34
 147.7000       44
 147.7200       37
 147.7400       42
 147.7600       38
 147.7800       42
 147.8000       49
 147.8200       42
 147.8400       47
 147.8600       31
 147.8800       43
 147.9000       27
 147.9200       31
 147.9400       35
 147.9600       48
 147.9800       44
 148.0000       34
 148.0200       42
 148.0400       29
 148.0600       55
 148.0800       39
 148.1000       36
 148.1200       32
 148.1400       38
 148.1600       45
 148.1800       39
 148.2000       39
 148.2200       45
 148.2400       24
 148.2600       48
 148.2800       36
 148.3000       39
 148.3200       45
 148.3400       35
 148.3600       37
 148.3800       45
 148.4000       29
 148.4200       38
 148.4400       37
 148.4600       39
 148.4800       42
 148.5000       40
 148.5200       38
 148.5400       51
 148.5600       45
 148.5800       43
 148.6000       46
 148.6200       48
 148.6400       41
 148.6600       49
 148.6800       41
 148.7000       42
 148.7200       38
 148.7400       49
 148.7600       34
 148.7800       50
 148.8000       42
 148.8200       39
 148.8400       41
 148.8600       34
 148.8800       35
 148.9000       55
 148.9200       45
 148.9400       35
 148.9600       44
 148.9800       39
 149.0000       40
 149.0200       50
 149.0400       36
 149.0600       46
 149.0800       46
 149.1000       39
 149.1200       44
 149.1400       43
 149.1600       43
 149.1800       37
 149.2000       44
 149.2200       44
 149.2400       44
 149.2600       48
 149.2800       54
 149.3000       36
 149.3200       38
 149.3400       33
 149.3600       47
 149.3800       45
 149.4000       46
 149.4200       47
 149.4400       58
 149.4600       55
 149.4800       34
 149.5000       50
 149.5200       59
 149.5400       42
 149.5600       37
 149.5800       49
 149.6000       52
 149.6200       50
 149.6400       49
 149.6600       52
 149.6800       41
 149.7000       47
 149.7200       40
 149.7400       54
 149.7600       45
 149.7800       37
 149.8000       46
 149.8200       50
 149.8400       52
 149.8600       40
 149.8800       49
 149.9000       47
 149.9200       47
 149.9400       37
 149.9600       44
 149.9800       52
 150.0000       44
 150.0200       56
 150.0400       50
 150.0600       57
 150.0800       49
 150.1000       43
 150.1200       51
 150.1400       53
 150.1600       54
 150.1800       49
 150.2000       45
 150.2200       49
 150.2400       54
 150.2600       52
 150.2800       53
 150.3000       47
 150.3200       48
 150.3400       54
 150.3600       52
 150.3800       52
 150.4000       68
 150.4200       56
 150.4400       59
 150.4600       72
 150.4800       58
 150.5000       62
 150.5200       60
 150.5400       54
 150.5600       56
 150.5800       58
 150.6000       62
 150.6200       42
 150.6400       51
 150.6600       49
 150.6800       55
 150.7000       45
 150.7200       53
 150.7400       64
 150.7600       50
 150.7800       62
 150.8000       56
 150.8200       59
 150.8400       63
 150.8600       57
 150.8800       57
 150.9000       50
 150.9200       63
 150.9400       67
 150.9600       57
 150.9800       52
 151.0000       67
 151.0200       75
 151.0400       71
 151.0600       63
 151.0800       58
 151.1000       73
 151.1200       61
 151.1400       60
 151.1600       62
 151.1800       54
 151.2000       98
 151.2200       67
 151.2400       74
 151.2600       72
 151.2800       86
 151.3000       62
 151.3200       89
 151.3400       94
 151.3600       73
 151.3800       61
 151.4000       71
 151.4200       85
 151.4400       82
 151.4600       72
 151.4800       79
 151.5000       88
 151.5200       79
 151.5400       51
 151.5600       69
 151.5800       76
 151.6000       93
 151.6200       76
 151.6400       87
 151.6600       73
 151.6800       83
 151.7000       83
 151.7200       80
 151.7400       97
 151.7600       86
 151.7800      102
 151.8000       90
 151.8200       80
 151.8400       82
 151.8600       87
 151.8800       84
 151.9000      100
 151.9200       82
 151.9400       70
 151.9600       96
 151.9800      107
 152.0000       91
 152.0200       97
 152.0400       92
 152.0600       90
 152.0800       95
 152.1000      112
 152.1200       94
 152.1400       98
 152.1600      114
 152.1800       97
 152.2000      114
 152.2200      108
 152.2400      107
 152.2600      104
 152.2800      121
 152.3000      103
 152.3200      103
 152.3400      131
 152.3600      118
 152.3800      115
 152.4000      132
 152.4200      127
 152.4400      137
 152.4600      127
 152.4800      133
 152.5000      135
 152.5200      133
 152.5400      126
 152.5600      123
 152.5800      144
 152.6000      132
 152.6200      132
 152.6400      143
 152.6600      145
 152.6800      131
 152.7000      143
 152.7200      151
 152.7400      161
 152.7600      130
 152.7800      128
 152.8000      143
 152.8200      148
 152.8400      155
 152.8600      170
 152.8800      160
 152.9000      177
 152.9200      169
 152.9400      171
 152.9600      172
 152.9800      179
 153.0000      217
 153.0200      193
 153.0400      163
 153.0600      187
 153.0800      182
 153.1000      198
 153.1200      195
 153.1400      205
 153.1600      196
 153.1800      208
 153.2000      179
 153.2200      191
 153.2400      215
 153.2600      202
 153.2800      205
 153.3000      227
 153.3200      235
 153.3400      207
 153.3600      224
 153.3800      212
 153.4000      233
 153.4200      237
 153.4400      246
 153.4600      250
 153.4800      254
 153.5000      248
 153.5200      296
 153.5400      266
 153.5600      281
 153.5800      250
 153.6000      261
 153.6200      280
 153.6400      275
 153.6600      282
 153.6800      251
 153.7000      290
 153.7200      278
 153.7400      312
 153.7600      279
 153.7800      288
 153.8000      306
 153.8200      298
 153.8400      317
 153.8600      327
 153.8800      333
 153.9000      361
 153.9200      346
 153.9400      326
 153.9600      328
 153.9800      345
 154.0000      336
 154.0200      344
 154.0400      358
 154.0600      377
 154.0800      348
 154.1000      360
 154.1200      404
 154.1400      382
 154.1600      351
 154.1800      394
 154.2000      375
 154.2200      425
 154.2400      378
 154.2600      398
 154.2800      420
 154.3000      403
 154.3200      370
 154.3400      413
 154.3600      396
 154.3800      437
 154.4000      459
 154.4200      434
 154.4400      469
 154.4600      400
 154.4800      446
 154.5000      436
 154.5200      428
 154.5400      451
 154.5600      450
 154.5800      409
 154.6000      423
 154.6200      413
 154.6400      415
 154.6600      424
 154.6800      471
 154.7000      425
 154.7200      435
 154.7400      436
 154.7600      411
 154.7800      466
 154.8000      453
 154.8200      428
 154.8400      445
 154.8600      420
 154.8800      456
 154.9000      441
 154.9200      431
 154.9400      449
 154.9600      459
 154.9800      449
 155.0000      435