File: XRD_Tool/XRD_Tool/bin/Debug/SDD_sample_name_001_Psi-15_20180528-050438.txt
 150.0000       72
 150.0200       71
 150.0400       64
 150.0600       58
 150.0800       68
 150.1000       58
 150.1200       67
 150.1400       75
 150.1600       75
 150.1800       75
 150.2000       66
 150.2200       70
 150.2400       73
 150.2600       70
 150.2800       70
 150.3000       69
 150.3200       62
 150.3400       55
 150.3600       56
 150.3800       56
 150.4000       63
 150.4200       67
 150.4400       70
 150.4600       81
 150.4800       80
 150.5000       63
 150.5200       72
 150.5400       73
 150.5600       74
 150.5800       72
 150.6000       79
 150.6200       69
 150.6400       68
 150.6600       68
 150.6800       72
 150.7000       78
 150.7200       81
 150.7400       74
 150.7600       80
 150.7800       88
 150.8000       59
 150.8200       84
 150.8400       69
 150.8600       71
 150.8800       73
 150.9000       69
 150.9200       82
 150.9400       78
 150.9600       61
 150.9800       65
 151.0000       91
 151.0200       79
 151.0400       63
 151.0600       67
 151.0800       65
 151.1000       80
 151.1200       69
 151.1400       73
 151.1600       78
 151.1800       86
 151.2000       86
 151.2200       83
 151.2400       84
 151.2600       88
 151.2800       83
 151.3000       78
 151.3200       93
 151.3400       97
 151.3600       97
 151.3800       82
 151.4000       78
 151.4200       82
 151.4400       86
 151.4600       98
 151.4800       85
 151.5000       78
 151.5200       88
 151.5400       85
 151.5600       80
 151.5800       94
 151.6000      101
 151.6200       86
 151.6400       99
 151.6600       87
 151.6800       82
 151.7000       97
 151.7200       96
 151.7400      102
 151.7600      109
 151.7800      114
 151.8000       83
 151.8200      125
 151.8400      107
 151.8600      109
 151.8800      117
 151.9000      103
 151.9200      100
 151.9400       87
 151.9600      105
 151.9800      127
 152.0000      107
 152.0200      107
 152.0400      100
 152.0600      115
 152.0800      104
 152.1000      100
 152.1200       98
 152.1400      106
 152.1600      134
 152.1800      118
 152.2000      131
 152.2200      117
 152.2400      141
 152.2600      122
 152.2800      119
 152.3000      135
 152.3200      119
 152.3400      113
 152.3600      131
 152.3800      125
 152.4000      127
 152.4200      127
 152.4400      125
 152.4600      145
 152.4800      120
 152.5000      139
 152.5200      123
 152.5400      139
 152.5600      123
 152.5800      129
 152.6000      130
 152.6200      143
 152.6400      138
 152.6600      149
 152.6800      142
 152.7000      129
 152.7200      141
 152.7400      157
 152.7600      169
 152.7800      163
 152.8000      187
 152.8200      174
 152.8400      166
 152.8600      137
 152.8800      169
 152.9000      170
 152.9200      200
 152.9400      156
 152.9600      166
 152.9800      166
 153.0000      190
 153.0200      186
 153.0400      201
 153.0600      191
 153.0800      211
 153.1000      183
 153.1200      203
 153.1400      197
 153.1600      178
 153.1800      229
 153.2000      188
 153.2200      221
 153.2400      222
 153.2600      206
 153.2800      227
 153.3000      214
 153.3200      202
 153.3400      238
 153.3600      258
 153.3800      243
 153.4000      237
 153.4200      255
 153.4400      258
 153.4600      261
 153.4800      263
 153.5000      271
 153.5200      269
 153.5400      276
 153.5600      267
 153.5800      266
 153.6000      280
 153.6200      294
 153.6400      262
 153.6600      291
 153.6800      296
 153.7000      286
 153.7200      274
 153.7400      299
 153.7600      303
 153.7800      284
 153.8000      338
 153.8200      335
 153.8400      344
 153.8600      317
 153.8800      317
 153.9000      341
 153.9200      340
 153.9400      358
 153.9600      326
 153.9800      336
 154.0000      354
 154.0200      370
 154.0400      361
 154.0600      376
 154.0800      342
 154.1000      384
 154.1200      339
 154.1400      407
 154.1600      372
 154.1800      370
 154.2000      383
 154.2200      416
 154.2400      393
 154.2600      371
 154.2800      452
 154.3000      407
 154.3200      422
 154.3400      431
 154.3600      424
 154.3800      418
 154.4000      428
 154.4200      413
 154.4400      393
 154.4600      423
 154.4800      409
 154.5000      431
 154.5200      402
 154.5400      401
 154.5600      425
 154.5800      434
 154.6000      409
 154.6200      441
 154.6400      454
 154.6600      393
 154.6800      468
 154.7000      431
 154.7200      495
 154.7400      451
 154.7600      428
 154.7800      460
 154.8000      450
 154.8200      474
 154.8400      447
 154.8600      450
 154.8800      476
 154.9000      450
 154.9200      421
 154.9400      462
 154.9600      442
 154.9800      422
 155.0000      435
 155.0200      433
 155.0400      453
 155.0600      464
 155.0800      437
 155.1000      456
 155.1200      433
 155.1400      472
 155.1600      437
 155.1800      487
 155.2000      439
 155.2200      446
 155.2400      430
 155.2600      448
 155.2800      411
 155.3000      438
 155.3200      455
 155.3400      440
 155.3600      465
 155.3800      436
 155.4000      434
 155.4200      438
 155.4400      416
 155.4600      445
 155.4800      418
 155.5000      379
 155.5200      417
 155.5400      418
 155.5600      413
 155.5800      368
 155.6000      394
 155.6200      409
 155.6400      389
 155.6600      400
 155.6800      418
 155.7000      407
 155.7200      391
 155.7400      373
 155.7600      349
 155.7800      367
 155.8000      385
 155.8200      336
 155.8400      338
 155.8600      367
 155.8800      349
 155.9000      350
 155.9200      353
 155.9400      319
 155.9600      321
 155.9800      305
 156.0000      335
 156.0200      335
 156.0400      281
 156.0600      329
 156.0800      351
 156.1000      307
 156.1200      289
 156.1400      309
 156.1600      287
 156.1800      283
 156.2000      285
 156.2200      264
 156.2400      284
 156.2600      294
 156.2800      297
 156.3000      291
 156.3200      251
 156.3400      250
 156.3600      273
 156.3800      282
 156.4000      251
 156.4200      278
 156.4400      256
 156.4600      276
 156.4800      259
 156.5000      249
 156.5200      245
 156.5400      230
 156.5600      248
 156.5800      242
 156.6000      221
 156.6200      250
 156.6400      249
 156.6600      233
 156.6800      224
 156.7000      253
 156.7200      216
 156.7400      212
 156.7600      200
 156.7800      201
 156.8000      210
 156.8200      202
 156.8400      192
 156.8600      234
 156.8800      195
 156.9000      200
 156.9200      194
 156.9400      171
 156.9600      208
 156.9800      195
 157.0000      179
 157.0200      184
 157.0400      189
 157.0600      185
 157.0800      181
 157.1000      181
 157.1200      191
 157.1400      189
 157.1600      191
 157.1800      173
 157.2000      179
 157.2200      188
 157.2400      162
 157.2600      201
 157.2800      179
 157.3000      181
 157.3200      163
 157.3400      166
 157.3600      169
 157.3800      142
 157.4000      141
 157.4200      159
 157.4400      154
 157.4600      159
 157.4800      156
 157.5000      153
 157.5200      125
 157.5400      147
 157.5600      152
 157.5800      157
 157.6000      157
 157.6200      144
 157.6400      152
 157.6600      169
 157.6800      137
 157.7000      149
 157.7200      130
 157.7400      141
 157.7600      136
 157.7800      142
 157.8000      119
 157.8200      129
 157.8400      126
 157.8600      133
 157.8800      135
 157.9000      139
 157.9200       98
 157.9400      119
 157.9600      112
 157.9800      119
 158.0000      130
 158.0200      135
 158.0400      107
 158.0600      126
 158.0800      140
 158.1000      116
 158.1200      103
 158.1400      121
 158.1600      113
 158.1800      127
 158.2000      118
 158.2200      120
 158.2400      120
 158.2600      105
 158.2800      120
 158.3000      125
 158.3200      101
 158.3400      108
 158.3600      108
 158.3800      111
 158.4000      103
 158.4200       97
 158.4400      124
 158.4600      116
 158.4800      105
 158.5000       94
 158.5200      112
 158.5400       83
 158.5600      113
 158.5800       95
 158.6000      100
 158.6200       85
 158.6400      107
 158.6600      102
 158.6800      105
 158.7000      122
 158.7200       98
 158.7400       88
 158.7600       91
 158.7800       97
 158.8000      105
 158.8200      113
 158.8400       92
 158.8600       96
 158.8800       95
 158.9000       91
 158.9200      110
 158.9400       85
 158.9600       87
 158.9800       90
 159.0000       83
 159.0200       94
 159.0400       99
 159.0600      108
 159.0800       83
 159.1000      115
 159.1200       84
 159.1400      114
 159.1600       83
 159.1800       78
 159.2000       81
 159.2200       80
 159.2400      115
 159.2600       83
 159.2800       88
 159.3000       99
 159.3200       86
 159.3400       94
 159.3600       82
 159.3800       96
 159.4000       89
 159.4200       82
 159.4400       88
 159.4600       93
 159.4800       96
 159.5000       73
 159.5200       86
 159.5400       64
 159.5600       78
 159.5800       77
 159.6000       77
 159.6200       85
 159.6400       86
 159.6600       85
 159.6800       73
 159.7000       82
 159.7200       84
 159.7400       79
 159.7600       86
 159.7800       81
 159.8000       83
 159.8200       72
 159.8400       66
 159.8600       91
 159.8800       71
 159.9000       74
 159.9200       88
 159.9400       91
 159.9600       97
 159.9800       62
 160.0000       77