File: XRD_Tool/XRD_Tool/bin/Debug/SDD_sample_name_01234_Psi-15_20180602-131443.txt
 145.0000       34
 145.0200       38
 145.0400       43
 145.0600       40
 145.0800       38
 145.1000       38
 145.1200       29
 145.1400       34
 145.1600       31
 145.1800       53
 145.2000       40
 145.2200       34
 145.2400       43
 145.2600       38
 145.2800       39
 145.3000       46
 145.3200       41
 145.3400       44
 145.3600       39
 145.3800       26
 145.4000       48
 145.4200       38
 145.4400       40
 145.4600       41
 145.4800       33
 145.5000       22
 145.5200       39
 145.5400       48
 145.5600       32
 145.5800       35
 145.6000       46
 145.6200       39
 145.6400       32
 145.6600       35
 145.6800       36
 145.7000       37
 145.7200       41
 145.7400       40
 145.7600       42
 145.7800       39
 145.8000       36
 145.8200       40
 145.8400       41
 145.8600       42
 145.8800       36
 145.9000       48
 145.9200       42
 145.9400       33
 145.9600       39
 145.9800       31
 146.0000       39
 146.0200       41
 146.0400       50
 146.0600       39
 146.0800       51
 146.1000       33
 146.1200       31
 146.1400       39
 146.1600       43
 146.1800       26
 146.2000       34
 146.2200       43
 146.2400       37
 146.2600       40
 146.2800       37
 146.3000       36
 146.3200       42
 146.3400       44
 146.3600       30
 146.3800       41
 146.4000       34
 146.4200       38
 146.4400       49
 146.4600       53
 146.4800       34
 146.5000       32
 146.5200       35
 146.5400       35
 146.5600       40
 146.5800       42
 146.6000       44
 146.6200       35
 146.6400       36
 146.6600       39
 146.6800       48
 146.7000       35
 146.7200       45
 146.7400       37
 146.7600       40
 146.7800       22
 146.8000       32
 146.8200       39
 146.8400       47
 146.8600       34
 146.8800       39
 146.9000       43
 146.9200       33
 146.9400       43
 146.9600       39
 146.9800       48
 147.0000       46
 147.0200       50
 147.0400       45
 147.0600       36
 147.0800       40
 147.1000       40
 147.1200       50
 147.1400       37
 147.1600       48
 147.1800       34
 147.2000       43
 147.2200       39
 147.2400       46
 147.2600       45
 147.2800       46
 147.3000       34
 147.3200       47
 147.3400       30
 147.3600       34
 147.3800       40
 147.4000       50
 147.4200       44
 147.4400       55
 147.4600       35
 147.4800       54
 147.5000       41
 147.5200       39
 147.5400       50
 147.5600       39
 147.5800       47
 147.6000       41
 147.6200       25
 147.6400       29
 147.6600       45
 147.6800       33
 147.7000       37
 147.7200       47
 147.7400       40
 147.7600       51
 147.7800       41
 147.8000       40
 147.8200       53
 147.8400       30
 147.8600       42
 147.8800       37
 147.9000       34
 147.9200       43
 147.9400       37
 147.9600       44
 147.9800       34
 148.0000       41
 148.0200       38
 148.0400       42
 148.0600       47
 148.0800       45
 148.1000       38
 148.1200       41
 148.1400       46
 148.1600       39
 148.1800       45
 148.2000       50
 148.2200       42
 148.2400       45
 148.2600       45
 148.2800       36
 148.3000       50
 148.3200       46
 148.3400       42
 148.3600       49
 148.3800       48
 148.4000       46
 148.4200       31
 148.4400       44
 148.4600       45
 148.4800       48
 148.5000       41
 148.5200       34
 148.5400       42
 148.5600       42
 148.5800       46
 148.6000       45
 148.6200       50
 148.6400       36
 148.6600       38
 148.6800       48
 148.7000       46
 148.7200       38
 148.7400       42
 148.7600       50
 148.7800       40
 148.8000       65
 148.8200       54
 148.8400       38
 148.8600       49
 148.8800       44
 148.9000       44
 148.9200       44
 148.9400       49
 148.9600       43
 148.9800       44
 149.0000       44
 149.0200       45
 149.0400       39
 149.0600       45
 149.0800       62
 149.1000       37
 149.1200       40
 149.1400       46
 149.1600       45
 149.1800       54
 149.2000       48
 149.2200       45
 149.2400       56
 149.2600       41
 149.2800       42
 149.3000       51
 149.3200       53
 149.3400       42
 149.3600       60
 149.3800       52
 149.4000       40
 149.4200       53
 149.4400       46
 149.4600       55
 149.4800       39
 149.5000       56
 149.5200       48
 149.5400       36
 149.5600       45
 149.5800       51
 149.6000       44
 149.6200       45
 149.6400       37
 149.6600       63
 149.6800       51
 149.7000       56
 149.7200       52
 149.7400       57
 149.7600       59
 149.7800       58
 149.8000       43
 149.8200       65
 149.8400       43
 149.8600       54
 149.8800       59
 149.9000       40
 149.9200       64
 149.9400       48
 149.9600       43
 149.9800       65
 150.0000       55
 150.0200       54
 150.0400       48
 150.0600       59
 150.0800       63
 150.1000       54
 150.1200       50
 150.1400       44
 150.1600       57
 150.1800       53
 150.2000       67
 150.2200       54
 150.2400       56
 150.2600       69
 150.2800       56
 150.3000       56
 150.3200       50
 150.3400       55
 150.3600       54
 150.3800       52
 150.4000       55
 150.4200       59
 150.4400       50
 150.4600       53
 150.4800       70
 150.5000       52
 150.5200       63
 150.5400       67
 150.5600       62
 150.5800       71
 150.6000       62
 150.6200       63
 150.6400       76
 150.6600       51
 150.6800       63
 150.7000       66
 150.7200       76
 150.7400       51
 150.7600       67
 150.7800       66
 150.8000       53
 150.8200       59
 150.8400       59
 150.8600       76
 150.8800       68
 150.9000       61
 150.9200       72
 150.9400       63
 150.9600       59
 150.9800       58
 151.0000       74
 151.0200       66
 151.0400       67
 151.0600       66
 151.0800       66
 151.1000       69
 151.1200       78
 151.1400       90
 151.1600       84
 151.1800       68
 151.2000       73
 151.2200       63
 151.2400       69
 151.2600       69
 151.2800       78
 151.3000       81
 151.3200       96
 151.3400       93
 151.3600       88
 151.3800       67
 151.4000       82
 151.4200       80
 151.4400       77
 151.4600       71
 151.4800       63
 151.5000       74
 151.5200       77
 151.5400       85
 151.5600       73
 151.5800       83
 151.6000      104
 151.6200       67
 151.6400       76
 151.6600       83
 151.6800       88
 151.7000       87
 151.7200       94
 151.7400       91
 151.7600       84
 151.7800       97
 151.8000       93
 151.8200      103
 151.8400       90
 151.8600       99
 151.8800       97
 151.9000      101
 151.9200       96
 151.9400       90
 151.9600      101
 151.9800       92
 152.0000       96
 152.0200       99
 152.0400       93
 152.0600       97
 152.0800      111
 152.1000      113
 152.1200      126
 152.1400      101
 152.1600      112
 152.1800      104
 152.2000      109
 152.2200      128
 152.2400      103
 152.2600      134
 152.2800      127
 152.3000      111
 152.3200      127
 152.3400      118
 152.3600      136
 152.3800      114
 152.4000      133
 152.4200      138
 152.4400      140
 152.4600      127
 152.4800      149
 152.5000      145
 152.5200      131
 152.5400      129
 152.5600      141
 152.5800      143
 152.6000      146
 152.6200      138
 152.6400      139
 152.6600      130
 152.6800      165
 152.7000      156
 152.7200      148
 152.7400      167
 152.7600      151
 152.7800      152
 152.8000      171
 152.8200      170
 152.8400      160
 152.8600      180
 152.8800      164
 152.9000      163
 152.9200      194
 152.9400      164
 152.9600      168
 152.9800      222
 153.0000      188
 153.0200      195
 153.0400      196
 153.0600      203
 153.0800      206
 153.1000      218
 153.1200      209
 153.1400      192
 153.1600      236
 153.1800