File: XRD_Tool/XRD_Tool/bin/Debug/SDD_sample_name_001_Psi-0_20180528-074414.txt
 150.0000       63
 150.0200       68
 150.0400       65
 150.0600       81
 150.0800       57
 150.1000       56
 150.1200       65
 150.1400       72
 150.1600       71
 150.1800       71
 150.2000       74
 150.2200       67
 150.2400       61
 150.2600       77
 150.2800       70
 150.3000       63
 150.3200       72
 150.3400       75
 150.3600       75
 150.3800       54
 150.4000       69
 150.4200       74
 150.4400       69
 150.4600       64
 150.4800       63
 150.5000       73
 150.5200       74
 150.5400       61
 150.5600       76
 150.5800       75
 150.6000       64
 150.6200       68
 150.6400       59
 150.6600       71
 150.6800       78
 150.7000       69
 150.7200       74
 150.7400       69
 150.7600       80
 150.7800       78
 150.8000       69
 150.8200       70
 150.8400       83
 150.8600       70
 150.8800       76
 150.9000       81
 150.9200       81
 150.9400       83
 150.9600       85
 150.9800       67
 151.0000       83
 151.0200       72
 151.0400       64
 151.0600       74
 151.0800       75
 151.1000       63
 151.1200       95
 151.1400       84
 151.1600       86
 151.1800       98
 151.2000      106
 151.2200       83
 151.2400       82
 151.2600       85
 151.2800       82
 151.3000       88
 151.3200       90
 151.3400       82
 151.3600       94
 151.3800       88
 151.4000       83
 151.4200       80
 151.4400       92
 151.4600       68
 151.4800      100
 151.5000       93
 151.5200       86
 151.5400       96
 151.5600       87
 151.5800      104
 151.6000       89
 151.6200       89
 151.6400      106
 151.6600      102
 151.6800       95
 151.7000      103
 151.7200       88
 151.7400       89
 151.7600      119
 151.7800       83
 151.8000      107
 151.8200       92
 151.8400      113
 151.8600      124
 151.8800       96
 151.9000      107
 151.9200      115
 151.9400      107
 151.9600      128
 151.9800      113
 152.0000      124
 152.0200      126
 152.0400      131
 152.0600      124
 152.0800      123
 152.1000      117
 152.1200      118
 152.1400      126
 152.1600      114
 152.1800      121
 152.2000      110
 152.2200      121
 152.2400      130
 152.2600      118
 152.2800      135
 152.3000      148
 152.3200      135
 152.3400      134
 152.3600      125
 152.3800      150
 152.4000      140
 152.4200      126
 152.4400      148
 152.4600      149
 152.4800      147
 152.5000      148
 152.5200      150
 152.5400      153
 152.5600      148
 152.5800      163
 152.6000      156
 152.6200      164
 152.6400      170
 152.6600      173
 152.6800      168
 152.7000      169
 152.7200      170
 152.7400      196
 152.7600      202
 152.7800      182
 152.8000      161
 152.8200      179
 152.8400      183
 152.8600      185
 152.8800      198
 152.9000      196
 152.9200      173
 152.9400      195
 152.9600      214
 152.9800      197
 153.0000      214
 153.0200      197
 153.0400      233
 153.0600      225
 153.0800      220
 153.1000      247
 153.1200      208
 153.1400      223
 153.1600      231
 153.1800      232
 153.2000      243
 153.2200      227
 153.2400      234
 153.2600      252
 153.2800      248
 153.3000      241
 153.3200      285
 153.3400      251
 153.3600      273
 153.3800      282
 153.4000      274
 153.4200      261
 153.4400      286
 153.4600      294
 153.4800      263
 153.5000      297
 153.5200      315
 153.5400      311
 153.5600      299
 153.5800      290
 153.6000      298
 153.6200      318
 153.6400      324
 153.6600      290
 153.6800      332
 153.7000      330
 153.7200      325
 153.7400      324
 153.7600      346
 153.7800      337
 153.8000      375
 153.8200      392
 153.8400      398
 153.8600      358
 153.8800      374
 153.9000      409
 153.9200      390
 153.9400      384
 153.9600      394
 153.9800      372
 154.0000      394
 154.0200      423
 154.0400      415
 154.0600      407
 154.0800      435
 154.1000      428
 154.1200      430
 154.1400      442
 154.1600      451
 154.1800      409
 154.2000      425
 154.2200      421
 154.2400      451
 154.2600      427
 154.2800      462
 154.3000      457
 154.3200      493
 154.3400      480
 154.3600      463
 154.3800      487
 154.4000      435
 154.4200      452
 154.4400      479
 154.4600      444
 154.4800      479
 154.5000      481
 154.5200      487
 154.5400      473
 154.5600      465
 154.5800      478
 154.6000      521
 154.6200      500
 154.6400      491
 154.6600      458
 154.6800      480
 154.7000      497
 154.7200      469
 154.7400      521
 154.7600      485
 154.7800      470
 154.8000      453
 154.8200      477
 154.8400      486
 154.8600      490
 154.8800      515
 154.9000      484
 154.9200      528
 154.9400      476
 154.9600      456
 154.9800      475
 155.0000      479
 155.0200      431
 155.0400      467
 155.0600      461
 155.0800      429
 155.1000      454
 155.1200      444
 155.1400      485
 155.1600      485
 155.1800      461
 155.2000      482
 155.2200      474
 155.2400      451
 155.2600      477
 155.2800      433
 155.3000      467
 155.3200      420
 155.3400      470
 155.3600      415
 155.3800      449
 155.4000      446
 155.4200      473
 155.4400      441
 155.4600      419
 155.4800      424
 155.5000      434
 155.5200      428
 155.5400      440
 155.5600      427
 155.5800      421
 155.6000      429
 155.6200      414
 155.6400      411
 155.6600      404
 155.6800      379
 155.7000      367
 155.7200      379
 155.7400      385
 155.7600      375
 155.7800      387
 155.8000      398
 155.8200      393
 155.8400      321
 155.8600      363
 155.8800      353
 155.9000      321
 155.9200      346
 155.9400      364
 155.9600      333
 155.9800      338
 156.0000      318
 156.0200      325
 156.0400      308
 156.0600      319
 156.0800      323
 156.1000      290
 156.1200      309
 156.1400      283
 156.1600      289
 156.1800      291
 156.2000      298
 156.2200      269
 156.2400      294
 156.2600      297
 156.2800      276
 156.3000      272
 156.3200      285
 156.3400      282
 156.3600      283
 156.3800      276
 156.4000      231
 156.4200      263
 156.4400      244
 156.4600      257
 156.4800      222
 156.5000      267
 156.5200      267
 156.5400      227
 156.5600      263
 156.5800      241
 156.6000      227
 156.6200      247
 156.6400      221
 156.6600      196
 156.6800      241
 156.7000      218
 156.7200      233
 156.7400      232
 156.7600      241
 156.7800      196
 156.8000      218
 156.8200      218
 156.8400      183
 156.8600      200
 156.8800      192
 156.9000      188
 156.9200      185
 156.9400      201
 156.9600      192
 156.9800      172
 157.0000      194
 157.0200      196
 157.0400      216
 157.0600      191
 157.0800      179
 157.1000      168
 157.1200      172
 157.1400      155
 157.1600      167
 157.1800      180
 157.2000      183
 157.2200      145
 157.2400      158
 157.2600      162
 157.2800      153
 157.3000      183
 157.3200      179
 157.3400      159
 157.3600      149
 157.3800      162
 157.4000      125
 157.4200      174
 157.4400      139
 157.4600      142
 157.4800      157
 157.5000      171
 157.5200      121
 157.5400      141
 157.5600      149
 157.5800      135
 157.6000      136
 157.6200      144
 157.6400      125
 157.6600      127
 157.6800      136
 157.7000      130
 157.7200      120
 157.7400      152
 157.7600      115
 157.7800      155
 157.8000      110
 157.8200      115
 157.8400      109
 157.8600      125
 157.8800      149
 157.9000      145
 157.9200      138
 157.9400      125
 157.9600      122
 157.9800      127
 158.0000      126
 158.0200      124
 158.0400      138
 158.0600      126
 158.0800      112
 158.1000      140
 158.1200       99
 158.1400      104
 158.1600      110
 158.1800      101
 158.2000      118
 158.2200      107
 158.2400      117
 158.2600      125
 158.2800      103
 158.3000      121
 158.3200      118
 158.3400       87
 158.3600       97
 158.3800       95
 158.4000      125
 158.4200      100
 158.4400      101
 158.4600      113
 158.4800       97
 158.5000       98
 158.5200       99
 158.5400       86
 158.5600      104
 158.5800       99
 158.6000       98
 158.6200      101
 158.6400       91
 158.6600       82
 158.6800       92
 158.7000       90
 158.7200       75
 158.7400      116
 158.7600       98
 158.7800       93
 158.8000       95
 158.8200       92
 158.8400       95
 158.8600       97
 158.8800       80
 158.9000       90
 158.9200       93
 158.9400      102
 158.9600       98
 158.9800      108
 159.0000       78
 159.0200       93
 159.0400       94
 159.0600       74
 159.0800       78
 159.1000       82
 159.1200       82
 159.1400       93
 159.1600       96
 159.1800       86
 159.2000       81
 159.2200       76
 159.2400       92
 159.2600       84
 159.2800       85
 159.3000       63
 159.3200       67
 159.3400       85
 159.3600       80
 159.3800       81
 159.4000       88
 159.4200       82
 159.4400       78
 159.4600       81
 159.4800       56
 159.5000       76
 159.5200       83
 159.5400       91
 159.5600       80
 159.5800       76
 159.6000       87
 159.6200       73
 159.6400       91
 159.6600       75
 159.6800       80
 159.7000       74
 159.7200       65
 159.7400       62
 159.7600       92
 159.7800       82
 159.8000       69
 159.8200       81
 159.8400       80
 159.8600       72
 159.8800       67
 159.9000       71
 159.9200       61
 159.9400       66
 159.9600       62
 159.9800       88
 160.0000       84