File: XRD_Tool/XRD_Tool/bin/Debug/SDD_sample_name_01234_Psi-15_20180602-195354.txt
 150.0000      142
 150.0200      123
 150.0400      105
 150.0600      115
 150.0800      118
 150.1000      135
 150.1200      124
 150.1400      103
 150.1600      121
 150.1800      102
 150.2000      104
 150.2200      115
 150.2400      121
 150.2600      100
 150.2800      118
 150.3000      142
 150.3200      129
 150.3400      137
 150.3600      136
 150.3800      140
 150.4000      144
 150.4200      133
 150.4400      141
 150.4600      143
 150.4800      126
 150.5000      137
 150.5200      111
 150.5400      137
 150.5600      138
 150.5800      133
 150.6000      148
 150.6200      159
 150.6400      161
 150.6600      138
 150.6800      143
 150.7000      135
 150.7200      145
 150.7400      149
 150.7600      130
 150.7800      147
 150.8000      161
 150.8200      130
 150.8400      140
 150.8600      161
 150.8800      158
 150.9000      152
 150.9200      160
 150.9400      156
 150.9600      165
 150.9800      151
 151.0000      169
 151.0200      164
 151.0400      163
 151.0600      163
 151.0800      185
 151.1000      164
 151.1200      177
 151.1400      185
 151.1600      151
 151.1800      156
 151.2000      170
 151.2200      166
 151.2400      179
 151.2600      195
 151.2800      188
 151.3000      169
 151.3200      154
 151.3400      196
 151.3600      165
 151.3800      204
 151.4000      179
 151.4200      174
 151.4400      177
 151.4600      186
 151.4800      182
 151.5000      195
 151.5200      192
 151.5400      183
 151.5600      205
 151.5800      211
 151.6000      205
 151.6200      206
 151.6400      201
 151.6600      199
 151.6800      202
 151.7000      207
 151.7200      227
 151.7400      249
 151.7600      200
 151.7800      245
 151.8000      235
 151.8200      214
 151.8400      218
 151.8600      227
 151.8800      231
 151.9000      234
 151.9200      233
 151.9400      238
 151.9600      233
 151.9800      244
 152.0000      250
 152.0200      213
 152.0400      247
 152.0600      257
 152.0800      241
 152.1000      243
 152.1200      235
 152.1400      265
 152.1600      241
 152.1800      240
 152.2000      248
 152.2200      269
 152.2400      260
 152.2600      240
 152.2800      235
 152.3000      271
 152.3200      242
 152.3400      261
 152.3600      283
 152.3800      252
 152.4000      250
 152.4200      250
 152.4400      276
 152.4600      256
 152.4800      295
 152.5000      272
 152.5200      281
 152.5400      283
 152.5600      289
 152.5800      299
 152.6000      312
 152.6200      265
 152.6400      271
 152.6600      292
 152.6800      276
 152.7000      303
 152.7200      324
 152.7400      306
 152.7600      310
 152.7800      317
 152.8000      294
 152.8200      297
 152.8400      308
 152.8600      288
 152.8800      342
 152.9000      319
 152.9200      323
 152.9400      344
 152.9600      284
 152.9800      327
 153.0000      333
 153.0200      342
 153.0400      324
 153.0600      359
 153.0800      327
 153.1000      370
 153.1200      342
 153.1400      331
 153.1600      364
 153.1800      341
 153.2000      344
 153.2200      344
 153.2400      352
 153.2600      345
 153.2800      369
 153.3000      369
 153.3200      313
 153.3400      344
 153.3600      387
 153.3800      389
 153.4000      366
 153.4200      370
 153.4400      372
 153.4600      370
 153.4800      363
 153.5000      394
 153.5200      362
 153.5400      402
 153.5600      374
 153.5800      375
 153.6000      382
 153.6200      386
 153.6400      451
 153.6600      418
 153.6800      386
 153.7000      429
 153.7200      415
 153.7400      398
 153.7600      426
 153.7800      399
 153.8000      444
 153.8200      359
 153.8400      408
 153.8600      416
 153.8800      435
 153.9000      432
 153.9200      391
 153.9400      426
 153.9600      424
 153.9800      426
 154.0000      419
 154.0200      438
 154.0400      440
 154.0600      418
 154.0800      416
 154.1000      443
 154.1200      405
 154.1400      403
 154.1600      408
 154.1800      435
 154.2000      403
 154.2200      449
 154.2400      457
 154.2600      418
 154.2800      411
 154.3000      433
 154.3200      433
 154.3400      462
 154.3600      475
 154.3800      459
 154.4000      463
 154.4200      493
 154.4400      437
 154.4600      446
 154.4800      442
 154.5000      464
 154.5200      455
 154.5400      434
 154.5600      469
 154.5800      438
 154.6000      436
 154.6200      438
 154.6400      473
 154.6600      404
 154.6800      454
 154.7000      475
 154.7200      438
 154.7400      435
 154.7600      433
 154.7800      457
 154.8000      430
 154.8200      484
 154.8400      482
 154.8600      499
 154.8800      482
 154.9000      444
 154.9200      490
 154.9400      480
 154.9600      464
 154.9800      443
 155.0000      479
 155.0200      432
 155.0400      496
 155.0600      406
 155.0800      483
 155.1000      442
 155.1200      462
 155.1400      503
 155.1600      439
 155.1800      466
 155.2000      419
 155.2200      460
 155.2400      470
 155.2600      479
 155.2800      460
 155.3000      468
 155.3200      444
 155.3400      482
 155.3600      414
 155.3800      446
 155.4000      449
 155.4200      433
 155.4400      454
 155.4600      486
 155.4800      475
 155.5000      483
 155.5200      482
 155.5400      432
 155.5600      442
 155.5800      471
 155.6000      452
 155.6200      443
 155.6400      469
 155.6600      436
 155.6800      466
 155.7000      461
 155.7200      446
 155.7400      456
 155.7600      460
 155.7800      461
 155.8000      461
 155.8200      443
 155.8400      401
 155.8600      463
 155.8800      422
 155.9000      423
 155.9200      441
 155.9400      441
 155.9600      427
 155.9800      428
 156.0000      438
 156.0200      379
 156.0400      413
 156.0600      398
 156.0800      408
 156.1000      419
 156.1200      417
 156.1400      404
 156.1600      421
 156.1800      397
 156.2000      430
 156.2200      433
 156.2400      400
 156.2600      446
 156.2800      419
 156.3000      400
 156.3200      398
 156.3400      423
 156.3600      411
 156.3800      391
 156.4000      376
 156.4200      402
 156.4400      375
 156.4600      413
 156.4800      376
 156.5000      358
 156.5200      351
 156.5400      399
 156.5600      381
 156.5800      380
 156.6000      418
 156.6200      362
 156.6400      350
 156.6600      371
 156.6800      374
 156.7000      382
 156.7200      369
 156.7400      406
 156.7600      355
 156.7800      400
 156.8000      343
 156.8200      354
 156.8400      347
 156.8600      351
 156.8800      326
 156.9000      353
 156.9200      400
 156.9400      369
 156.9600      354
 156.9800      366
 157.0000      348
 157.0200      356
 157.0400      324
 157.0600      337
 157.0800      342
 157.1000      334
 157.1200      344
 157.1400      329
 157.1600      348
 157.1800      326
 157.2000      358
 157.2200      331
 157.2400      318
 157.2600      333
 157.2800      354
 157.3000      314
 157.3200      316
 157.3400      310
 157.3600      276
 157.3800      326
 157.4000      323
 157.4200      313
 157.4400      292
 157.4600      299
 157.4800      335
 157.5000      321
 157.5200      285
 157.5400      306
 157.5600      304
 157.5800      318
 157.6000      312
 157.6200      300
 157.6400      299
 157.6600      258
 157.6800      276
 157.7000      268
 157.7200      257
 157.7400      271
 157.7600      271
 157.7800      278
 157.8000      282
 157.8200      260
 157.8400      322
 157.8600      276
 157.8800      283
 157.9000      261
 157.9200      255
 157.9400      292
 157.9600      269
 157.9800      271
 158.0000      262