File: XRD_Tool/XRD_Tool/bin/Debug/SDD_sample_name_01234_Psi-0_20180602-105210.txt
 145.0000       46
 145.0200       30
 145.0000       46
 145.0200       30
 145.0000       46
 145.0200       30
 145.0400       40
 145.0600       43
 145.0400       40
 145.0600       43
 145.0400       40
 145.0600       43
 145.0800       33
 145.1000       35
 145.0800       33
 145.1000       35
 145.0800       33
 145.1000       35
 145.1200       34
 145.1400       43
 145.1200       34
 145.1400       43
 145.1200       34
 145.1400       43
 145.1600       43
 145.1800       39
 145.1600       43
 145.1800       39
 145.1600       43
 145.1800       39
 145.2000       38
 145.2200       44
 145.2000       38
 145.2200       44
 145.2000       38
 145.2200       44
 145.2400       40
 145.2600       37
 145.2400       40
 145.2600       37
 145.2400       40
 145.2600       37
 145.2800       29
 145.3000       37
 145.2800       29
 145.3000       37
 145.2800       29
 145.3000       37
 145.3200       35
 145.3400       37
 145.3200       35
 145.3400       37
 145.3200       35
 145.3400       37
 145.3600       37
 145.3800       32
 145.3600       37
 145.3800       32
 145.3600       37
 145.3800       32
 145.4000       35
 145.4200       32
 145.4000       35
 145.4200       32
 145.4000       35
 145.4200       32
 145.4400       38
 145.4600       38
 145.4400       38
 145.4600       38
 145.4400       38
 145.4600       38
 145.4800       39
 145.5000       32
 145.4800       39
 145.5000       32
 145.4800       39
 145.5000       32
 145.5200       52
 145.5400       34
 145.5200       52
 145.5400       34
 145.5200       52
 145.5400       34
 145.5600       35
 145.5800       36
 145.5600       35
 145.5800       36
 145.5600       35
 145.5800       36
 145.6000       39
 145.6200       47
 145.6000       39
 145.6200       47
 145.6000       39
 145.6200       47
 145.6400       35
 145.6600       30
 145.6400       35
 145.6600       30
 145.6400       35
 145.6600       30
 145.6800       34
 145.7000       40
 145.6800       34
 145.7000       40
 145.6800       34
 145.7000       40
 145.7200       27
 145.7400       38
 145.7200       27
 145.7400       38
 145.7200       27
 145.7400       38
 145.7600       39
 145.7800       34
 145.7600       39
 145.7800       34
 145.7600       39
 145.7800       34
 145.8000       48
 145.8200       40
 145.8000       48
 145.8200       40
 145.8000       48
 145.8200       40
 145.8400       46
 145.8600       38
 145.8400       46
 145.8600       38
 145.8400       46
 145.8600       38
 145.8800       37
 145.9000       39
 145.8800       37
 145.9000       39
 145.8800       37
 145.9000       39
 145.9200       26
 145.9400       32
 145.9200       26
 145.9400       32
 145.9200       26
 145.9400       32
 145.9600       47
 145.9800       37
 145.9600       47
 145.9800       37
 145.9600       47
 145.9800       37
 146.0000       44
 146.0200       40
 146.0000       44
 146.0200       40
 146.0000       44
 146.0200       40
 146.0400       39
 146.0600       41
 146.0400       39
 146.0600       41
 146.0400       39
 146.0600       41
 146.0800       36
 146.1000       37
 146.0800       36
 146.1000       37
 146.0800       36
 146.1000       37
 146.1200       32
 146.1400       44
 146.1200       32
 146.1400       44
 146.1200       32
 146.1400       44
 146.1600       36
 146.1800       44
 146.1600       36
 146.1800       44
 146.1600       36
 146.1800       44
 146.2000       43
 146.2200       40
 146.2000       43
 146.2200       40
 146.2000       43
 146.2200       40
 146.2400       34
 146.2600       33
 146.2400       34
 146.2600       33
 146.2400       34
 146.2600       33
 146.2800       35
 146.3000       45
 146.2800       35
 146.3000       45
 146.2800       35
 146.3000       45
 146.3200       41
 146.3400       39
 146.3200       41
 146.3400       39
 146.3200       41
 146.3400       39
 146.3600       50
 146.3800       47
 146.3600       50
 146.3800       47
 146.3600       50
 146.3800       47
 146.4000       23
 146.4200       51
 146.4000       23
 146.4200       51
 146.4000       23
 146.4200       51
 146.4400       46
 146.4600       45
 146.4400       46
 146.4600       45
 146.4400       46
 146.4600       45
 146.4800       42
 146.5000       34
 146.4800       42
 146.5000       34
 146.4800       42
 146.5000       34
 146.5200       48
 146.5400       33
 146.5200       48
 146.5400       33
 146.5200       48
 146.5400       33
 146.5600       44
 146.5800       35
 146.5600       44
 146.5800       35
 146.5600       44
 146.5800       35
 146.6000       47
 146.6200       39
 146.6000       47
 146.6200       39
 146.6000       47
 146.6200       39
 146.6400       33
 146.6600       49
 146.6400       33
 146.6600       49
 146.6400       33
 146.6600       49
 146.6800       46
 146.7000       42
 146.6800       46
 146.7000       42
 146.6800       46
 146.7000       42
 146.7200       36
 146.7400       39
 146.7200       36
 146.7400       39
 146.7200       36
 146.7400       39
 146.7600       46
 146.7800       41
 146.7600       46
 146.7800       41
 146.7600       46
 146.7800       41
 146.8000       38
 146.8200       50
 146.8000       38
 146.8200       50
 146.8000       38
 146.8200       50
 146.8400       36
 146.8600       34
 146.8400       36
 146.8600       34
 146.8400       36
 146.8600       34
 146.8800       38
 146.9000       46
 146.8800       38
 146.9000       46
 146.8800       38
 146.9000       46
 146.9200       41
 146.9400       46
 146.9200       41
 146.9400       46
 146.9200       41
 146.9400       46
 146.9600       43
 146.9800       46
 146.9600       43
 146.9800       46
 146.9600       43
 146.9800       46
 147.0000       36
 147.0200       35
 147.0000       36
 147.0200       35
 147.0000       36
 147.0200       35
 147.0400       36
 147.0600       39
 147.0400       36
 147.0600       39
 147.0400       36
 147.0600       39
 147.0800       51
 147.1000       35
 147.0800       51
 147.1000       35
 147.0800       51
 147.1000       35
 147.1200       35
 147.1400       33
 147.1200       35
 147.1400       33
 147.1200       35
 147.1400       33
 147.1600       44
 147.1800       37
 147.1600       44
 147.1800       37
 147.1600       44
 147.1800       37
 147.2000       40
 147.2200       44
 147.2000       40
 147.2200       44
 147.2000       40
 147.2200       44
 147.2400       47
 147.2600       41
 147.2400       47
 147.2600       41
 147.2400       47
 147.2600       41
 147.2800       36
 147.3000       35
 147.2800       36
 147.3000       35
 147.2800       36
 147.3000       35
 147.3200       46
 147.3400       36
 147.3200       46
 147.3400       36
 147.3200       46
 147.3400       36
 147.3600       34
 147.3800       33
 147.3600       34
 147.3800       33
 147.3600       34
 147.3800       33
 147.4000       45
 147.4200       34
 147.4000       45
 147.4200       34
 147.4000       45
 147.4200       34
 147.4400       53
 147.4600       46
 147.4400       53
 147.4600       46
 147.4400       53
 147.4600       46
 147.4800       49
 147.5000       31
 147.4800       49
 147.5000       31
 147.4800       49
 147.5000       31
 147.5200       49
 147.5400       33
 147.5200       49
 147.5400       33
 147.5200       49
 147.5400       33
 147.5600       47
 147.5800       38
 147.5600       47
 147.5800       38
 147.5600       47
 147.5800       38
 147.6000       45
 147.6200       42
 147.6000       45
 147.6200       42
 147.6000       45
 147.6200       42
 147.6400       54
 147.6600       44
 147.6400       54
 147.6600       44
 147.6400       54
 147.6600       44
 147.6800       37
 147.7000       50
 147.6800       37
 147.7000       50
 147.6800       37
 147.7000       50
 147.7200       48
 147.7400       41
 147.7200       48
 147.7400       41
 147.7200       48
 147.7400       41
 147.7600       37
 147.7800       47
 147.7600       37
 147.7800       47
 147.7600       37
 147.7800       47
 147.8000       41
 147.8200       37
 147.8000       41
 147.8200       37
 147.8000       41
 147.8200       37
 147.8400       46
 147.8600       30
 147.8400       46
 147.8600       30
 147.8400       46
 147.8600       30
 147.8800       44
 147.9000       33
 147.8800       44
 147.9000       33
 147.8800       44
 147.9000       33
 147.9200       53
 147.9400       45
 147.9200       53
 147.9400       45
 147.9200       53
 147.9400       45
 147.9600       33
 147.9800       33
 148.0000       44
 147.9800       33
 148.0000       44
 147.9800       33
 148.0000       44
 148.0200       40
 148.0400       49
 148.0200       40
 148.0400       49
 148.0200       40
 148.0400       49
 148.0600       41
 148.0800       49
 148.0600       41
 148.0800       49
 148.0600       41
 148.0800       49
 148.1000       45
 148.1200       36
 148.1000       45
 148.1200       36
 148.1000       45
 148.1200       36
 148.1400       40
 148.1600       39
 148.1400       40
 148.1600       39
 148.1400       40
 148.1600       39
 148.1800       40
 148.2000       33
 148.1800       40
 148.2000       33
 148.1800       40
 148.2000       33
 148.2200       44
 148.2400       39
 148.2200       44
 148.2400       39
 148.2200       44
 148.2400       39
 148.2600       43
 148.2800       42
 148.2600       43
 148.2800       42
 148.2600       43
 148.2800       42
 148.3000       41
 148.3200       43
 148.3000       41
 148.3200       43
 148.3000       41
 148.3200       43
 148.3400       37
 148.3600       41