File: XRD_Tool/XRD_Tool/bin/Debug/SDD_sample_name_01234_Psi-15_20180602-095528.txt
 145.0000       31
 145.0200       34
 145.0400       32
 145.0600       33
 145.0800       40
 145.1000       32
 145.1200       39
 145.1400       23
 145.1600       26
 145.1800       47
 145.2000       37
 145.2200       40
 145.2400       34
 145.2600       42
 145.2800       39
 145.3000       38
 145.3200       42
 145.3400       35
 145.3600       42
 145.3800       35
 145.4000       34
 145.4200       40
 145.4400       35
 145.4600       28
 145.4800       26
 145.5000       42
 145.5200       50
 145.5400       34
 145.5600       40
 145.5800       40
 145.6000       43
 145.6200       39
 145.6400       36
 145.6600       32
 145.6800       38
 145.7000       37
 145.7200       36
 145.7400       33
 145.7600       47
 145.7800       37
 145.8000       28
 145.8200       45
 145.8400       39
 145.8600       34
 145.8800       31
 145.9000       44
 145.9200       43
 145.9400       35
 145.9600       45
 145.9800       44
 146.0000       39
 146.0200       38
 146.0400       44
 146.0600       41
 146.0800       30
 146.1000       36
 146.1200       43
 146.1400       47
 146.1600       35
 146.1800       43
 146.2000       36
 146.2200       42
 146.2400       38
 146.2600       45
 146.2800       35
 146.3000       36
 146.3200       38
 146.3400       27
 146.3600       44
 146.3800       33
 146.4000       37
 146.4200       41
 146.4400       34
 146.4600       42
 146.4800       38
 146.5000       30
 146.5200       44
 146.5400       37
 146.5600       39
 146.5800       39
 146.6000       39
 146.6200       29
 146.6400       38
 146.6600       42
 146.6800       37
 146.7000       46
 146.7200       42
 146.7400       40
 146.7600       34
 146.7800       36
 146.8000       46
 146.8200       38
 146.8400       42
 146.8600       43
 146.8800       32
 146.9000       45
 146.9200       33
 146.9400       35
 146.9600       27
 146.9800       35
 147.0000       41
 147.0200       37
 147.0400       36
 147.0600       43
 147.0800       48
 147.1000       38
 147.1200       43
 147.1400       29
 147.1600       50
 147.1800       44
 147.2000       55
 147.2200       48
 147.2400       47
 147.2600       36
 147.2800       34
 147.3000       32
 147.3200       46
 147.3400       37
 147.3600       31
 147.3800       28
 147.4000       40
 147.4200       36
 147.4400       41
 147.4600       46
 147.4800       35
 147.5000       47
 147.5200       36
 147.5400       38
 147.5600       35
 147.5800       40
 147.6000       50
 147.6200       30
 147.6400       41
 147.6600       51
 147.6800       47
 147.7000       47
 147.7200       46
 147.7400       40
 147.7600       37
 147.7800       47
 147.8000       38
 147.8200       28
 147.8400       40
 147.8600       34
 147.8800       45
 147.9000       32
 147.9200       40
 147.9400       39
 147.9600       48
 147.9800       40
 148.0000       38
 148.0200       42
 148.0400       38
 148.0600       37
 148.0800       58
 148.1000       47
 148.1200       55
 148.1400       36
 148.1600       39
 148.1800       33
 148.2000       47
 148.2200       44
 148.2400       32
 148.2600       48
 148.2800       38
 148.3000       35
 148.3200       40
 148.3400       48
 148.3600       37
 148.3800       36
 148.4000       43
 148.4200       52
 148.4400       55
 148.4600       43
 148.4800       59
 148.5000       52
 148.5200       43
 148.5400       58
 148.5600       47
 148.5800       42
 148.6000       40
 148.6200       50
 148.6400       52
 148.6600       42
 148.6800       43
 148.7000       52
 148.7200       47
 148.7400       32
 148.7600       39
 148.7800       47
 148.8000       49
 148.8200       38
 148.8400       45
 148.8600       43
 148.8800       49
 148.9000       46
 148.9200       43
 148.9400       40
 148.9600       46
 148.9800       58
 149.0000       41
 149.0200       40
 149.0400       44
 149.0600       42
 149.0800       34
 149.1000       49
 149.1200       41
 149.1400       51
 149.1600       47
 149.1800       45
 149.2000       46
 149.2200       52
 149.2400       30
 149.2600       51
 149.2800       61
 149.3000       45
 149.3200       53
 149.3400       38
 149.3600       52
 149.3800       32
 149.4000       42
 149.4200       59
 149.4400       52
 149.4600       43
 149.4800       44
 149.5000       56
 149.5200       54
 149.5400       48
 149.5600       46
 149.5800       50
 149.6000       40
 149.6200       51
 149.6400       64
 149.6600       58
 149.6800       62
 149.7000       46
 149.7200       60
 149.7400       58
 149.7600       54
 149.7800       44
 149.8000       47
 149.8200       47
 149.8400       51
 149.8600       47
 149.8800       50
 149.9000       50
 149.9200       55
 149.9400       38
 149.9600       64
 149.9800       54
 150.0000       43
 150.0200       57
 150.0400       44
 150.0600       64
 150.0800       58
 150.1000       52
 150.1200       50
 150.1400       63
 150.1600       57
 150.1800       43
 150.2000       64
 150.2200       54
 150.2400       54
 150.2600       59
 150.2800       67
 150.3000       64
 150.3200       46
 150.3400       54
 150.3600       58
 150.3800       46
 150.4000       62
 150.4200       59
 150.4400       48
 150.4600       68
 150.4800       63
 150.5000       44
 150.5200       56
 150.5400       60
 150.5600       55
 150.5800       52
 150.6000       55
 150.6200       47
 150.6400       47
 150.6600       57
 150.6800       57
 150.7000       65
 150.7200       53
 150.7400       71
 150.7600       57
 150.7800       59
 150.8000       68
 150.8200       70
 150.8400       64
 150.8600       66
 150.8800       58
 150.9000       58
 150.9200       52
 150.9400       73
 150.9600       73
 150.9800       76
 151.0000       61
 151.0200       56
 151.0400       63
 151.0600       56
 151.0800       73
 151.1000       69
 151.1200       76
 151.1400       64
 151.1600       66
 151.1800       75
 151.2000       74
 151.2200       67
 151.2400       69
 151.2600       69
 151.2800       80
 151.3000       94
 151.3200       78
 151.3400       83
 151.3600       89
 151.3800       88
 151.4000       83
 151.4200       75
 151.4400       75
 151.4600       78
 151.4800       68
 151.5000       88
 151.5200       66
 151.5400       72
 151.5600       85
 151.5800       93
 151.6000       59
 151.6200       78
 151.6400       99
 151.6600       57
 151.6800      101
 151.7000       93
 151.7200       90
 151.7400      108
 151.7600       81
 151.7800       91
 151.8000       93
 151.8200       83
 151.8400      109
 151.8600       94
 151.8800      107
 151.9000       94
 151.9200       82
 151.9400      109
 151.9600      107
 151.9800      102
 152.0000       96
 152.0200      117
 152.0400       84
 152.0600       76
 152.0800      102
 152.1000       84
 152.1200       93
 152.1400      116
 152.1600      118
 152.1800      124
 152.2000      109
 152.2200      111
 152.2400      127
 152.2600      102
 152.2800      105
 152.3000      113
 152.3200      114
 152.3400      133
 152.3600      125
 152.3800      117
 152.4000      114
 152.4200      115
 152.4400      147
 152.4600      146
 152.4800      127
 152.5000      132
 152.5200      145
 152.5400      126
 152.5600      151
 152.5800      115
 152.6000      128
 152.6200      155
 152.6400      154
 152.6600      158
 152.6800      161
 152.7000      161
 152.7200      153
 152.7400      174
 152.7600      161
 152.7800      145
 152.8000      171
 152.8200      166
 152.8400      146
 152.8600      167
 152.8800      162
 152.9000      177
 152.9200      170
 152.9400      175
 152.9600      170
 152.9800      186
 153.0000      160
 153.0200      184
 153.0400      189
 153.0600      201
 153.0800      210
 153.1000      199
 153.1200      193
 153.1400      189
 153.1600      192
 153.1800      195
 153.2000      232
 153.2200      241
 153.2400      202
 153.2600      227
 153.2800      215
 153.3000      239
 153.3200      217
 153.3400      222
 153.3600      246
 153.3800      234
 153.4000      244
 153.4200      277
 153.4400      269
 153.4600      246
 153.4800      249
 153.5000      269
 153.5200      265
 153.5400      275
 153.5600      276
 153.5800      268
 153.6000      285
 153.6200      295
 153.6400      279
 153.6600      308
 153.6800      306
 153.7000      332
 153.7200      335
 153.7400      324
 153.7600      329
 153.7800      332
 153.8000      337
 153.8200      339
 153.8400      338
 153.8600      362
 153.8800      340
 153.9000      309
 153.9200      322
 153.9400      336
 153.9600      357
 153.9800      400
 154.0000      363
 154.0200      400
 154.0400      382
 154.0600      363
 154.0800      363
 154.1000      388
 154.1200      404
 154.1400      404
 154.1600      381
 154.1800      418
 154.2000      397
 154.2200      390
 154.2400      393
 154.2600      414
 154.2800      459
 154.3000      466
 154.3200      436
 154.3400      423
 154.3600      415
 154.3800      425
 154.4000      462
 154.4200      432
 154.4400      411
 154.4600      422
 154.4800      456
 154.5000      408
 154.5200      463
 154.5400      431
 154.5600      465
 154.5800      477
 154.6000      484
 154.6200      450
 154.6400      466
 154.6600      479
 154.6800      470
 154.7000      437
 154.7200      464
 154.7400      473
 154.7600      448
 154.7800      504
 154.8000      455
 154.8200      470
 154.8400      458
 154.8600      448
 154.8800      469
 154.9000      453
 154.9200      463
 154.9400      457
 154.9600      461
 154.9800      418
 155.0000      463