File: XRD_Tool/XRD_Tool/bin/Debug/SDD_sample_name_001_Psi-15_20180528-074458.txt
 150.0000       56
 150.0200       66
 150.0400       59
 150.0600       63
 150.0800       73
 150.1000       67
 150.1200       76
 150.1400       44
 150.1600       70
 150.1800       60
 150.2000       75
 150.2200       62
 150.2400       79
 150.2600       72
 150.2800       66
 150.3000       74
 150.3200       72
 150.3400       73
 150.3600       84
 150.3800       74
 150.4000       69
 150.4200       64
 150.4400       65
 150.4600       68
 150.4800       65
 150.5000       64
 150.5200       70
 150.5400       65
 150.5600       78
 150.5800       74
 150.6000       70
 150.6200       65
 150.6400       81
 150.6600       79
 150.6800       67
 150.7000       64
 150.7200       79
 150.7400       73
 150.7600       84
 150.7800       72
 150.8000       58
 150.8200       75
 150.8400       55
 150.8600       66
 150.8800       65
 150.9000       69
 150.9200       78
 150.9400       82
 150.9600       75
 150.9800       88
 151.0000       77
 151.0200       82
 151.0400       65
 151.0600       95
 151.0800       71
 151.1000       79
 151.1200       73
 151.1400       85
 151.1600       95
 151.1800       80
 151.2000       83
 151.2200       77
 151.2400       76
 151.2600       82
 151.2800       92
 151.3000       96
 151.3200       79
 151.3400       78
 151.3600       82
 151.3800       91
 151.4000       90
 151.4200       90
 151.4400       92
 151.4600       86
 151.4800       87
 151.5000       80
 151.5200       90
 151.5400       96
 151.5600      115
 151.5800       93
 151.6000       96
 151.6200      105
 151.6400       85
 151.6600       84
 151.6800       97
 151.7000      111
 151.7200       86
 151.7400       86
 151.7600       75
 151.7800      106
 151.8000      109
 151.8200      123
 151.8400       88
 151.8600       90
 151.8800       99
 151.9000      111
 151.9200      115
 151.9400       97
 151.9600      103
 151.9800      115
 152.0000      114
 152.0200      102
 152.0400      111
 152.0600       97
 152.0800      128
 152.1000      115
 152.1200      118
 152.1400      125
 152.1600      108
 152.1800      140
 152.2000      132
 152.2200      133
 152.2400      132
 152.2600      155
 152.2800      133
 152.3000      141
 152.3200      122
 152.3400      128
 152.3600      122
 152.3800      140
 152.4000      142
 152.4200      147
 152.4400      131
 152.4600      121
 152.4800      156
 152.5000      137
 152.5200      128
 152.5400      158
 152.5600      134
 152.5800      131
 152.6000      158
 152.6200      166
 152.6400      140
 152.6600      180
 152.6800      165
 152.7000      147
 152.7200      142
 152.7400      161
 152.7600      160
 152.7800      182
 152.8000      166
 152.8200      192
 152.8400      191
 152.8600      187
 152.8800      181
 152.9000      172
 152.9200      149
 152.9400      159
 152.9600      174
 152.9800      173
 153.0000      173
 153.0200      201
 153.0400      209
 153.0600      214
 153.0800      211
 153.1000      214
 153.1200      216
 153.1400      213
 153.1600      212
 153.1800      207
 153.2000      226
 153.2200      231
 153.2400      237
 153.2600      218
 153.2800      235
 153.3000      207
 153.3200      225
 153.3400      254
 153.3600      252
 153.3800      240
 153.4000      278
 153.4200      260
 153.4400      271
 153.4600      262
 153.4800      292
 153.5000      250
 153.5200      300
 153.5400      307
 153.5600      256
 153.5800      267
 153.6000      302
 153.6200      295
 153.6400      305
 153.6600      312
 153.6800      309
 153.7000      303
 153.7200      313
 153.7400      341
 153.7600      368
 153.7800      322
 153.8000      334
 153.8200      363
 153.8400      318
 153.8600      340
 153.8800      351
 153.9000      354
 153.9200      370
 153.9400      415
 153.9600      395
 153.9800      385
 154.0000      359
 154.0200      351
 154.0400      375
 154.0600      351
 154.0800      416
 154.1000      374
 154.1200      372
 154.1400      417
 154.1600      416
 154.1800      379
 154.2000      417
 154.2200      429
 154.2400      393
 154.2600      445
 154.2800      438
 154.3000      470
 154.3200      429
 154.3400      431
 154.3600      443
 154.3800      453
 154.4000      438
 154.4200      464
 154.4400      447
 154.4600      441
 154.4800      449
 154.5000      456
 154.5200      457
 154.5400      471
 154.5600      444
 154.5800      454
 154.6000      459
 154.6200      498
 154.6400      451
 154.6600      413
 154.6800      477
 154.7000      470
 154.7200      493
 154.7400      454
 154.7600      465
 154.7800      438
 154.8000      475
 154.8200      456
 154.8400      466
 154.8600      474
 154.8800      468
 154.9000      464
 154.9200      464
 154.9400      474
 154.9600      489
 154.9800      496
 155.0000      467
 155.0200      470
 155.0400      480
 155.0600      477
 155.0800      494
 155.1000      448
 155.1200      507
 155.1400      486
 155.1600      438
 155.1800      467
 155.2000      478
 155.2200      456
 155.2400      426
 155.2600      439
 155.2800      460
 155.3000      446
 155.3200      469
 155.3400      454
 155.3600      448
 155.3800      447
 155.4000      458
 155.4200      440
 155.4400      411
 155.4600      437
 155.4800      445
 155.5000      411
 155.5200      439
 155.5400      387
 155.5600      428
 155.5800      431
 155.6000      424
 155.6200      424
 155.6400      404
 155.6600      360
 155.6800      368
 155.7000      346
 155.7200      378
 155.7400      414
 155.7600      368
 155.7800      411
 155.8000      340
 155.8200      392
 155.8400      359
 155.8600      341
 155.8800      338
 155.9000      360
 155.9200      370
 155.9400      340
 155.9600      378
 155.9800      325
 156.0000      352
 156.0200      346
 156.0400      301
 156.0600      323
 156.0800      322
 156.1000      375
 156.1200      316
 156.1400      320
 156.1600      331
 156.1800      320
 156.2000      318
 156.2200      310
 156.2400      313
 156.2600      315
 156.2800      286
 156.3000      280
 156.3200      311
 156.3400      299
 156.3600      268
 156.3800      270
 156.4000      290
 156.4200      260
 156.4400      261
 156.4600      298
 156.4800      255
 156.5000      259
 156.5200      260
 156.5400      236
 156.5600      229
 156.5800      246
 156.6000      244
 156.6200      251
 156.6400      248
 156.6600      240
 156.6800      228
 156.7000      223
 156.7200      231
 156.7400      211
 156.7600      222
 156.7800      233
 156.8000      219
 156.8200      180
 156.8400      216
 156.8600      180
 156.8800      240
 156.9000      190
 156.9200      203
 156.9400      201
 156.9600      192
 156.9800      188
 157.0000      176
 157.0200      186
 157.0400      194
 157.0600      187
 157.0800      198
 157.1000      168
 157.1200      185
 157.1400      173
 157.1600      194
 157.1800      179
 157.2000      173
 157.2200      160
 157.2400      152
 157.2600      189
 157.2800      179
 157.3000      172
 157.3200      169
 157.3400      156
 157.3600      156
 157.3800      150
 157.4000      156
 157.4200      164
 157.4400      140
 157.4600      150
 157.4800      170
 157.5000      162
 157.5200      151
 157.5400      150
 157.5600      142
 157.5800      140
 157.6000      150
 157.6200      124
 157.6400      145
 157.6600      127
 157.6800      126
 157.7000      147
 157.7200      146
 157.7400      134
 157.7600      126
 157.7800      135
 157.8000      118
 157.8200      138
 157.8400      113
 157.8600      112
 157.8800      131
 157.9000      119
 157.9200      116
 157.9400      138
 157.9600      116
 157.9800      129
 158.0000      134
 158.0200      114
 158.0400      119
 158.0600      114
 158.0800      117
 158.1000      106
 158.1200      113
 158.1400      120
 158.1600      125
 158.1800      105
 158.2000      120
 158.2200      117
 158.2400      109
 158.2600      118
 158.2800      100
 158.3000      107
 158.3200      127
 158.3400      113
 158.3600      103
 158.3800      114
 158.4000      103
 158.4200      113
 158.4400       87
 158.4600      112
 158.4800       95
 158.5000       95
 158.5200      105
 158.5400      105
 158.5600      102
 158.5800       98
 158.6000      115
 158.6200      101
 158.6400       89
 158.6600       93
 158.6800      103
 158.7000      108
 158.7200       89
 158.7400       88
 158.7600      104
 158.7800      106
 158.8000       94
 158.8200       86
 158.8400      100
 158.8600       99
 158.8800       77
 158.9000       87
 158.9200       96
 158.9400      100
 158.9600       81
 158.9800       86
 159.0000       93
 159.0200       99
 159.0400       96
 159.0600       88
 159.0800       97
 159.1000       94
 159.1200       87
 159.1400       90
 159.1600       99
 159.1800       86
 159.2000       96
 159.2200       86
 159.2400       84
 159.2600       72
 159.2800       82
 159.3000       92
 159.3200       80
 159.3400       83
 159.3600       81
 159.3800       92
 159.4000       81
 159.4200       71
 159.4400       70
 159.4600       75
 159.4800       91
 159.5000       70
 159.5200       77
 159.5400       72
 159.5600       77
 159.5800       79
 159.6000       68
 159.6200       81
 159.6400       72
 159.6600       82
 159.6800       75
 159.7000       69
 159.7200       86
 159.7400      100
 159.7600       72
 159.7800       82
 159.8000       71
 159.8200      102
 159.8400       66
 159.8600       75
 159.8800       62
 159.9000       73
 159.9200       80
 159.9400       67
 159.9600       69
 159.9800       84
 160.0000       74