File: XRD_Tool/XRD_Tool/bin/Debug/SDD_sample_name_01234_Psi-0_20180602-151429.txt
 145.0000       39
 145.0200       29
 145.0400       32
 145.0600       33
 145.0800       37
 145.1000       42
 145.1200       37
 145.1400       42
 145.1600       36
 145.1800       34
 145.2000       32
 145.2200       35
 145.2400       38
 145.2600       40
 145.2800       30
 145.3000       52
 145.3200       43
 145.3400       42
 145.3600       46
 145.3800       44
 145.4000       29
 145.4200       40
 145.4400       44
 145.4600       34
 145.4800       40
 145.5000       34
 145.5200       45
 145.5400       49
 145.5600       40
 145.5800       35
 145.6000       40
 145.6200       36
 145.6400       44
 145.6600       44
 145.6800       26
 145.7000       32
 145.7200       50
 145.7400       34
 145.7600       47
 145.7800       36
 145.8000       36
 145.8200       38
 145.8400       33
 145.8600       44
 145.8800       48
 145.9000       24
 145.9200       26
 145.9400       44
 145.9600       40
 145.9800       42
 146.0000       38
 146.0200       32
 146.0400       49
 146.0600       38
 146.0800       41
 146.1000       41
 146.1200       45
 146.1400       38
 146.1600       32
 146.1800       43
 146.2000       34
 146.2200       36
 146.2400       34
 146.2600       38
 146.2800       46
 146.3000       47
 146.3200       38
 146.3400       35
 146.3600       39
 146.3800       41
 146.4000       31
 146.4200       35
 146.4400       42
 146.4600       42
 146.4800       35
 146.5000       49
 146.5200       41
 146.5400       37
 146.5600       38
 146.5800       40
 146.6000       40
 146.6200       32
 146.6400       33
 146.6600       47
 146.6800       42
 146.7000       35
 146.7200       58
 146.7400       44
 146.7600       32
 146.7800       36
 146.8000       44
 146.8200       41
 146.8400       35
 146.8600       48
 146.8800       47
 146.9000       40
 146.9200       27
 146.9400       40
 146.9600       34
 146.9800       35
 147.0000       47
 147.0200       41
 147.0400       38
 147.0600       41
 147.0800       41
 147.1000       46
 147.1200       42
 147.1400       48
 147.1600       48
 147.1800       43
 147.2000       29
 147.2200       35
 147.2400       43
 147.2600       37
 147.2800       40
 147.3000       51
 147.3200       40
 147.3400       33
 147.3600       39
 147.3800       46
 147.4000       41
 147.4200       40
 147.4400       38
 147.4600       46
 147.4800       40
 147.5000       42
 147.5200       42
 147.5400       44
 147.5600       39
 147.5800       43
 147.6000       46
 147.6200       33
 147.6400       43
 147.6600       50
 147.6800       30
 147.7000       37
 147.7200       47
 147.7400       53
 147.7600       41
 147.7800       53
 147.8000       43
 147.8200       43
 147.8400       41
 147.8600       42
 147.8800       40
 147.9000       44
 147.9200       37
 147.9400       34
 147.9600       43
 147.9800       41
 148.0000       35
 148.0200       46
 148.0400       41
 148.0600       30
 148.0800       50
 148.1000       44
 148.1200       36
 148.1400       46
 148.1600       43
 148.1800       46
 148.2000       47
 148.2200       39
 148.2400       52
 148.2600       50
 148.2800       37
 148.3000       43
 148.3200       52
 148.3400       36
 148.3600       49
 148.3800       35
 148.4000       43
 148.4200       52
 148.4400       47
 148.4600       40
 148.4800       36
 148.5000       43
 148.5200       43
 148.5400       39
 148.5600       56
 148.5800       51
 148.6000       43
 148.6200       43
 148.6400       49
 148.6600       41
 148.6800       37
 148.7000       48
 148.7200       49
 148.7400       47
 148.7600       39
 148.7800       34
 148.8000       36
 148.8200       34
 148.8400       48
 148.8600       45
 148.8800       52
 148.9000       48
 148.9200       45
 148.9400       36
 148.9600       47
 148.9800       44
 149.0000       45
 149.0200       50
 149.0400       47
 149.0600       53
 149.0800       44
 149.1000       40
 149.1200       51
 149.1400       49
 149.1600       42
 149.1800       38
 149.2000       43
 149.2200       41
 149.2400       63
 149.2600       63
 149.2800       63
 149.3000       56
 149.3200       47
 149.3400       49
 149.3600       41
 149.3800       40
 149.4000       46
 149.4200       50
 149.4400       56
 149.4600       51
 149.4800       58
 149.5000       54
 149.5200       54
 149.5400       52
 149.5600       53
 149.5800       49
 149.6000       36
 149.6200       51
 149.6400       54
 149.6600       45
 149.6800       52
 149.7000       40
 149.7200       58
 149.7400       41
 149.7600       49
 149.7800       47
 149.8000       44
 149.8200       42
 149.8400       52
 149.8600       45
 149.8800       50
 149.9000       55
 149.9200       53
 149.9400       52
 149.9600       59
 149.9800       48
 150.0000       48
 150.0200       55
 150.0400       47
 150.0600       54
 150.0800       55
 150.1000       56
 150.1200       52
 150.1400       52
 150.1600       55
 150.1800       63
 150.2000       52
 150.2200       61
 150.2400       47
 150.2600       55
 150.2800       56
 150.3000       61
 150.3200       66
 150.3400       67
 150.3600       60
 150.3800       69
 150.4000       73
 150.4200       57
 150.4400       60
 150.4600       59
 150.4800       60
 150.5000       72
 150.5200       59
 150.5400       70
 150.5600       73
 150.5800       62
 150.6000       59
 150.6200       67
 150.6400       58
 150.6600       88
 150.6800       72
 150.7000       72
 150.7200       49
 150.7400       63
 150.7600       70
 150.7800       68
 150.8000       71
 150.8200       75
 150.8400       77
 150.8600       70
 150.8800       76
 150.9000       59
 150.9200       65
 150.9400       69
 150.9600       69
 150.9800       70
 151.0000       65
 151.0200       55
 151.0400       57
 151.0600       76
 151.0800       73
 151.1000       71
 151.1200       66
 151.1400       75
 151.1600       75
 151.1800       68
 151.2000       70
 151.2200       66
 151.2400       80
 151.2600       90
 151.2800       71
 151.3000       89
 151.3200       88
 151.3400       70
 151.3600       74
 151.3800       81
 151.4000       65
 151.4200       82
 151.4400       65
 151.4600       81
 151.4800       79
 151.5000       81
 151.5200       79
 151.5400      100
 151.5600      100
 151.5800       85
 151.6000       96
 151.6200       85
 151.6400       95
 151.6600      105
 151.6800       97
 151.7000       90
 151.7200      112
 151.7400      105
 151.7600       98
 151.7800       92
 151.8000       91
 151.8200      101
 151.8400       88
 151.8600       88
 151.8800      110
 151.9000      105
 151.9200      104
 151.9400       97
 151.9600      117
 151.9800      123
 152.0000       92
 152.0200      120
 152.0400      122
 152.0600      105
 152.0800      118
 152.1000      132
 152.1200       94
 152.1400      115
 152.1600      107
 152.1800      118
 152.2000      136
 152.2200      111
 152.2400      121
 152.2600      130
 152.2800      126
 152.3000      123
 152.3200      142
 152.3400      132
 152.3600      139
 152.3800      157
 152.4000      139
 152.4200      139
 152.4400      160
 152.4600      136
 152.4800      139
 152.5000      138
 152.5200      162
 152.5400      144
 152.5600      169
 152.5800      130
 152.6000      163
 152.6200      157
 152.6400      160
 152.6600      165
 152.6800      162
 152.7000      155
 152.7200      167
 152.7400      178
 152.7600      179
 152.7800      168
 152.8000      189
 152.8200      196
 152.8400      163
 152.8600      172
 152.8800      207
 152.9000      195
 152.9200      196
 152.9400      190
 152.9600      211
 152.9800      208
 153.0000      215
 153.0200      210
 153.0400      208
 153.0600      198
 153.0800      221
 153.1000      225
 153.1200      230
 153.1400      227
 153.1600      238
 153.1800      225
 153.2000      258
 153.2200      224
 153.2400      251
 153.2600      237
 153.2800      257
 153.3000      266
 153.3200      276
 153.3400      270
 153.3600      255
 153.3800      272
 153.4000      266
 153.4200      273
 153.4400      301
 153.4600      266
 153.4800      306
 153.5000      311
 153.5200      309
 153.5400      303
 153.5600      293
 153.5800      304
 153.6000      315
 153.6200      335
 153.6400      316
 153.6600      336
 153.6800      306
 153.7000      306
 153.7200      338
 153.7400      357
 153.7600      358
 153.7800      373
 153.8000      370
 153.8200      365
 153.8400      365
 153.8600      370
 153.8800      360
 153.9000      377
 153.9200      364
 153.9400      363
 153.9600      408
 153.9800      411
 154.0000      422
 154.0200      407
 154.0400      434
 154.0600      417
 154.0800      433
 154.1000      461
 154.1200      429
 154.1400      426
 154.1600      445
 154.1800      446
 154.2000      434
 154.2200      456
 154.2400      460
 154.2600      452
 154.2800      477
 154.3000      422
 154.3200      457
 154.3400      490
 154.3600      457
 154.3800      474
 154.4000      440
 154.4200      468
 154.4400      461
 154.4600      463
 154.4800      465
 154.5000      463
 154.5200      481
 154.5400      504
 154.5600      500
 154.5800      488
 154.6000      452
 154.6200      452
 154.6400      506
 154.6600      495
 154.6800      485
 154.7000      488
 154.7200      522
 154.7400      507
 154.7600      481
 154.7800      467
 154.8000      486
 154.8200      474
 154.8400      462
 154.8600      514
 154.8800      463
 154.9000      465
 154.9200      495
 154.9400      454
 154.9600      435
 154.9800      469
 155.0000      451