File: XRD_Tool/XRD_Tool/bin/Debug/SDD_sample_name_001_Psi-0_20180528-025750.txt
 145.0000       47
 145.0200       45
 145.0400       49
 145.0600       51
 145.0800       51
 145.1000       47
 145.1200       51
 145.1400       45
 145.1600       60
 145.1800       48
 145.2000       51
 145.2200       57
 145.2400       62
 145.2600       61
 145.2800       45
 145.3000       55
 145.3200       46
 145.3400       51
 145.3600       35
 145.3800       48
 145.4000       53
 145.4200       66
 145.4400       43
 145.4600       52
 145.4800       41
 145.5000       44
 145.5200       54
 145.5400       51
 145.5600       53
 145.5800       48
 145.6000       48
 145.6200       51
 145.6400       65
 145.6600       61
 145.6800       46
 145.7000       47
 145.7200       53
 145.7400       43
 145.7600       50
 145.7800       55
 145.8000       49
 145.8200       42
 145.8400       53
 145.8600       54
 145.8800       48
 145.9000       67
 145.9200       43
 145.9400       47
 145.9600       50
 145.9800       63
 146.0000       62
 146.0200       60
 146.0400       53
 146.0600       55
 146.0800       52
 146.1000       55
 146.1200       63
 146.1400       61
 146.1600       52
 146.1800       59
 146.2000       53
 146.2200       55
 146.2400       43
 146.2600       67
 146.2800       48
 146.3000       56
 146.3200       58
 146.3400       53
 146.3600       53
 146.3800       51
 146.4000       60
 146.4200       58
 146.4400       50
 146.4600       57
 146.4800       57
 146.5000       58
 146.5200       49
 146.5400       59
 146.5600       55
 146.5800       63
 146.6000       54
 146.6200       49
 146.6400       54
 146.6600       60
 146.6800       55
 146.7000       67
 146.7200       53
 146.7400       49
 146.7600       53
 146.7800       43
 146.8000       66
 146.8200       58
 146.8400       45
 146.8600       65
 146.8800       51
 146.9000       53
 146.9200       59
 146.9400       53
 146.9600       51
 146.9800       58
 147.0000       59
 147.0200       58
 147.0400       51
 147.0600       60
 147.0800       63
 147.1000       47
 147.1200       53
 147.1400       55
 147.1600       49
 147.1800       44
 147.2000       48
 147.2200       59
 147.2400       51
 147.2600       44
 147.2800       52
 147.3000       45
 147.3200       58
 147.3400       62
 147.3600       44
 147.3800       61
 147.4000       56
 147.4200       54
 147.4400       49
 147.4600       55
 147.4800       55
 147.5000       54
 147.5200       56
 147.5400       63
 147.5600       52
 147.5800       55
 147.6000       45
 147.6200       58
 147.6400       53
 147.6600       66
 147.6800       53
 147.7000       56
 147.7200       57
 147.7400       47
 147.7600       51
 147.7800       48
 147.8000       55
 147.8200       60
 147.8400       64
 147.8600       67
 147.8800       50
 147.9000       50
 147.9200       42
 147.9400       60
 147.9600       50
 147.9800       56
 148.0000       65
 148.0200       53
 148.0400       52
 148.0600       57
 148.0800       53
 148.1000       53
 148.1200       68
 148.1400       69
 148.1600       46
 148.1800       57
 148.2000       77
 148.2200       50
 148.2400       50
 148.2600       51
 148.2800       61
 148.3000       47
 148.3200       56
 148.3400       56
 148.3600       55
 148.3800       76
 148.4000       69
 148.4200       48
 148.4400       59
 148.4600       54
 148.4800       51
 148.5000       55
 148.5200       53
 148.5400       40
 148.5600       72
 148.5800       60
 148.6000       59
 148.6200       59
 148.6400       57
 148.6600       67
 148.6800       68
 148.7000       61
 148.7200       74
 148.7400       58
 148.7600       68
 148.7800       68
 148.8000       70
 148.8200       62
 148.8400       74
 148.8600       51
 148.8800       58
 148.9000       63
 148.9200       61
 148.9400       66
 148.9600       68
 148.9800       58
 149.0000       75
 149.0200       54
 149.0400       67
 149.0600       68
 149.0800       59
 149.1000       70
 149.1200       56
 149.1400       53
 149.1600       54
 149.1800       59
 149.2000       65
 149.2200       65
 149.2400       63
 149.2600       68
 149.2800       60
 149.3000       67
 149.3200       55
 149.3400       72
 149.3600       57
 149.3800       62
 149.4000       52
 149.4200       62
 149.4400       67
 149.4600       75
 149.4800       67
 149.5000       69
 149.5200       58
 149.5400       65
 149.5600       68
 149.5800       70
 149.6000       54
 149.6200       71
 149.6400       70
 149.6600       66
 149.6800       81
 149.7000       67
 149.7200       58
 149.7400       55
 149.7600       67
 149.7800       66
 149.8000       72
 149.8200       70
 149.8400       60
 149.8600       65
 149.8800       67
 149.9000       54
 149.9200       60
 149.9400       62
 149.9600       71
 149.9800       47
 150.0000       76
 150.0200       74
 150.0400       62
 150.0600       64
 150.0800       63
 150.1000       51
 150.1200       69
 150.1400       79
 150.1600       68
 150.1800       61
 150.2000       64
 150.2200       65
 150.2400       72
 150.2600       61
 150.2800       76
 150.3000       64
 150.3200       64
 150.3400       72
 150.3600       83
 150.3800       68
 150.4000       69
 150.4200       73
 150.4400       80
 150.4600       65
 150.4800       83
 150.5000       79
 150.5200       71
 150.5400       54
 150.5600       60
 150.5800       67
 150.6000       69
 150.6200       65
 150.6400       83
 150.6600       70
 150.6800       65
 150.7000       76
 150.7200       72
 150.7400       78
 150.7600       85
 150.7800       83
 150.8000       77
 150.8200       84
 150.8400       72
 150.8600       63
 150.8800       69
 150.9000       78
 150.9200       83
 150.9400       78
 150.9600       79
 150.9800       75
 151.0000       87
 151.0200       84
 151.0400       80
 151.0600       98
 151.0800       81
 151.1000       94
 151.1200       84
 151.1400       79
 151.1600       98
 151.1800       82
 151.2000       87
 151.2200       94
 151.2400       97
 151.2600       82
 151.2800       76
 151.3000       96
 151.3200       89
 151.3400       99
 151.3600       91
 151.3800       93
 151.4000      101
 151.4200       92
 151.4400       99
 151.4600       93
 151.4800      106
 151.5000       94
 151.5200       87
 151.5400       92
 151.5600       99
 151.5800       88
 151.6000       91
 151.6200       97
 151.6400      101
 151.6600      124
 151.6800      103
 151.7000       97
 151.7200      106
 151.7400      103
 151.7600      108
 151.7800      126
 151.8000      104
 151.8200       95
 151.8400      109
 151.8600      109
 151.8800      109
 151.9000      122
 151.9200      109
 151.9400      120
 151.9600      120
 151.9800      111
 152.0000      142
 152.0200      119
 152.0400      125
 152.0600      113
 152.0800      141
 152.1000      118
 152.1200      125
 152.1400      128
 152.1600      133
 152.1800      104
 152.2000      111
 152.2200      118
 152.2400      118
 152.2600      132
 152.2800      118
 152.3000      145
 152.3200      133
 152.3400      139
 152.3600      137
 152.3800      143
 152.4000      148
 152.4200      131
 152.4400      161
 152.4600      151
 152.4800      152
 152.5000      171
 152.5200      142
 152.5400      148
 152.5600      148
 152.5800      158
 152.6000      159
 152.6200      154
 152.6400      163
 152.6600      152
 152.6800      160
 152.7000      161
 152.7200      168
 152.7400      172
 152.7600      180
 152.7800      182
 152.8000      165
 152.8200      197
 152.8400      195
 152.8600      183
 152.8800      186
 152.9000      187
 152.9200      201
 152.9400      174
 152.9600      190
 152.9800      216
 153.0000      196
 153.0200      204
 153.0400      207
 153.0600      210
 153.0800      208
 153.1000      214
 153.1200      254
 153.1400      209
 153.1600      231
 153.1800      223
 153.2000      240
 153.2200      235
 153.2400      258
 153.2600      234
 153.2800      225
 153.3000      283
 153.3200      233
 153.3400      262
 153.3600      267
 153.3800      255
 153.4000      272
 153.4200      279
 153.4400      292
 153.4600      324
 153.4800      274
 153.5000      294
 153.5200      312
 153.5400      286
 153.5600      305
 153.5800      302
 153.6000      320
 153.6200      330
 153.6400      327
 153.6600      322
 153.6800      355
 153.7000      359
 153.7200      341
 153.7400      315
 153.7600      380
 153.7800      322
 153.8000      352
 153.8200      341
 153.8400      336
 153.8600      369
 153.8800      371
 153.9000      400
 153.9200      410
 153.9400      360
 153.9600      364
 153.9800      410
 154.0000      393
 154.0200      383
 154.0400      416
 154.0600      444
 154.0800      409
 154.1000      392
 154.1200      410
 154.1400      466
 154.1600      389
 154.1800      414
 154.2000      432
 154.2200      456
 154.2400      456
 154.2600      453
 154.2800      477
 154.3000      472
 154.3200      456
 154.3400      414
 154.3600      407
 154.3800      461
 154.4000      481
 154.4200      430
 154.4400      458
 154.4600      443
 154.4800      446
 154.5000      491
 154.5200      502
 154.5400      498
 154.5600      445
 154.5800      489
 154.6000      513
 154.6200      513
 154.6400      474
 154.6600      505
 154.6800      481
 154.7000      489
 154.7200      482
 154.7400      484
 154.7600      495
 154.7800      507
 154.8000      441
 154.8200      489
 154.8400      446
 154.8600      452
 154.8800      482
 154.9000      462
 154.9200      499
 154.9400      494
 154.9600      502
 154.9800      485
 155.0000      522