File: XRD_Tool/XRD_Tool/bin/LDA_sample_name_56789_Psi-15_20180603-123042.txt
143.0000     270
143.0400     256
143.0800     266
143.1200     250
143.1600     220
143.2000     251
143.2400     272
143.2800     264
143.3200     248
143.3600     273
143.4000     231
143.4400     251
143.4800     271
143.5200     267
143.5600     268
143.6000     256
143.6400     257
143.6800     245
143.7200     269
143.7600     245
143.8000     254
143.8400     271
143.8800     241
143.9200     273
143.9600     238
144.0000     273
144.0400     275
144.0800     289
144.1200     265
144.1600     263
144.2000     250
144.2400     241
144.2800     279
144.3200     261
144.3600     265
144.4000     252
144.4400     318
144.4800     242
144.5200     303
144.5600     250
144.6000     261
144.6400     247
144.6800     254
144.7200     278
144.7600     280
144.8000     276
144.8400     248
144.8800     263
144.9200     278
144.9600     257
145.0000     255
145.0400     259
145.0800     273
145.1200     220
145.1600     284
145.2000     263
145.2400     256
145.2800     285
145.3200     301
145.3600     280
145.4000     244
145.4400     262
145.4800     240
145.5200     234
145.5600     275
145.6000     260
145.6400     263
145.6800     278
145.7200     241
145.7600     268
145.8000     259
145.8400     261
145.8800     266
145.9200     253
145.9600     307
146.0000     266
146.0400     252
146.0800     229
146.1200     263
146.1600     246
146.2000     236
146.2400     264
146.2800     295
146.3200     273
146.3600     294
146.4000     269
146.4400     274
146.4800     253
146.5200     266
146.5600     269
146.6000     279
146.6400     279
146.6800     208
146.7200     267
146.7600     249
146.8000     292
146.8400     249
146.8800     260
146.9200     247
146.9600     261
147.0000     280
147.0400     265
147.0800     225
147.1200     279
147.1600     311
147.2000     296
147.2400     255
147.2800     256
147.3200     276
147.3600     281
147.4000     306
147.4400     287
147.4800     293
147.5200     268
147.5600     264
147.6000     296
147.6400     272
147.6800     268
147.7200     301
147.7600     260
147.8000     284
147.8400     313
147.8800     268
147.9200     292
147.9600     253
148.0000     311
148.0400     266
148.0800     308
148.1200     305
148.1600     278
148.2000     311
148.2400     292
148.2800     294
148.3200     264
148.3600     267
148.4000     280
148.4400     280
148.4800     312
148.5200     267
148.5600     300
148.6000     280
148.6400     277
148.6800     264
148.7200     253
148.7600     286
148.8000     299
148.8400     262
148.8800     291
148.9200     289
148.9600     274
149.0000     281
149.0400     285
149.0800     281
149.1200     291
149.1600     287
149.2000     298
149.2400     302
149.2800     279
149.3200     302
149.3600     311
149.4000     307
149.4400     290
149.4800     285
149.5200     276
149.5600     298
149.6000     305
149.6400     282
149.6800     296
149.7200     292
149.7600     296
149.8000     313
149.8400     274
149.8800     287
149.9200     308
149.9600     292
150.0000     338
150.0400     299
150.0800     305
150.1200     308
150.1600     292
150.2000     310
150.2400     282
150.2800     310
150.3200     334
150.3600     277
150.4000     280
150.4400     332
150.4800     338
150.5200     274
150.5600     303
150.6000     320
150.6400     308
150.6800     333
150.7200     310
150.7600     319
150.8000     322
150.8400     314
150.8800     304
150.9200     311
150.9600     323
151.0000     321
151.0400     327
151.0800     325
151.1200     346
151.1600     319
151.2000     348
151.2400     353
151.2800     322
151.3200     347
151.3600     357
151.4000     381
151.4400     370
151.4800     343
151.5200     340
151.5600     346
151.6000     375
151.6400     365
151.6800     349
151.7200     362
151.7600     347
151.8000     388
151.8400     414
151.8800     362
151.9200     360
151.9600     411
152.0000     402
152.0400     387
152.0800     408
152.1200     413
152.1600     383
152.2000     405
152.2400     434
152.2800     398
152.3200     429
152.3600     436
152.4000     449
152.4400     496
152.4800     505
152.5200     495
152.5600     521
152.6000     538
152.6400     499
152.6800     534
152.7200     536
152.7600     527
152.8000     527
152.8400     530
152.8800     570
152.9200     566
152.9600     545
153.0000     564
153.0400     619
153.0800     584
153.1200     624
153.1600     635
153.2000     603
153.2400     624
153.2800     657
153.3200     646
153.3600     658
153.4000     697
153.4400     680
153.4800     701
153.5200     709
153.5600     737
153.6000     708
153.6400     741
153.6800     718
153.7200     717
153.7600     703
153.8000     697
153.8400     704
153.8800     748
153.9200     781
153.9600     766
154.0000     809
154.0400     713
154.0800     723
154.1200     711
154.1600     748
154.2000     778
154.2400     752
154.2800     770
154.3200     713
154.3600     759
154.4000     745
154.4400     751
154.4800     789
154.5200     744
154.5600     786
154.6000     771
154.6400     805
154.6800     764
154.7200     773
154.7600     688
154.8000     727
154.8400     729
154.8800     669
154.9200     725
154.9600     699
155.0000     719
155.0400     770
155.0800     604
155.1200     625
155.1600     678
155.2000     699
155.2400     626
155.2800     691
155.3200     648
155.3600     638
155.4000     619
155.4400     647
155.4800     609
155.5200     612
155.5600     596
155.6000     563
155.6400     601
155.6800     605
155.7200     609
155.7600     584
155.8000     524
155.8400     547
155.8800     535
155.9200     563
155.9600     468
156.0000     526
156.0400     461
156.0800     514
156.1200     473
156.1600     436
156.2000     497
156.2400     516
156.2800     505
156.3200     480
156.3600     459
156.4000     465
156.4400     464
156.4800     446
156.5200     424
156.5600     488
156.6000     422
156.6400     494
156.6800     451
156.7200     433
156.7600     428
156.8000     418
156.8400     401
156.8800     468
156.9200     389
156.9600     393
157.0000     424
157.0400     394
157.0800     393
157.1200     385
157.1600     373
157.2000     375
157.2400     389
157.2800     394
157.3200     347
157.3600     380
157.4000     368
157.4400     358
157.4800     349
157.5200     366
157.5600     320
157.6000     397
157.6400     351
157.6800     399
157.7200     363
157.7600     362
157.8000     332
157.8400     358
157.8800     340
157.9200     360
157.9600     346
158.0000     355
158.0400     347
158.0800     383
158.1200     314
158.1600     314
158.2000     329
158.2400     310
158.2800     329
158.3200     349
158.3600     332
158.4000     328
158.4400     350
158.4800     354
158.5200     322
158.5600     318
158.6000     322
158.6400     357
158.6800     357
158.7200     333
158.7600     307
158.8000     300
158.8400     307
158.8800     301
158.9200     337
158.9600     284
159.0000     280
159.0400     291
159.0800     330
159.1200     324
159.1600     300
159.2000     304
159.2400     305
159.2800     335
159.3200     326
159.3600     323
159.4000     303
159.4400     291
159.4800     305
159.5200     312
159.5600     279
159.6000     312
159.6400     305
159.6800     255
159.7200     266
159.7600     301
159.8000     324
159.8400     298
159.8800     268
159.9200     307
159.9600     292
160.0000     275
160.0400     282
160.0800     263
160.1200     299
160.1600     293
160.2000     316
160.2400     307
160.2800     314
160.3200     318
160.3600     307
160.4000     332
160.4400     321
160.4800     330
160.5200     264
160.5600     303
160.6000     287
160.6400     262
160.6800     301
160.7200     300
160.7600     285
160.8000     312
160.8400     298
160.8800     318
160.9200     265
160.9600     283
161.0000     272
161.0400     286
161.0800     290
161.1200     281
161.1600     276
161.2000     267
161.2400     307
161.2800     279
161.3200     271
161.3600     271
161.4000     310
161.4400     307
161.4800     276
161.5200     276
161.5600     257
161.6000     258
161.6400     297
161.6800     287
161.7200     248
161.7600     281
161.8000     274
161.8400     311
161.8800     325
161.9200     261
161.9600     279
162.0000     259
162.0400     279
162.0800     307
162.1200     254
162.1600     277
162.2000     289
162.2400     300
162.2800     300
162.3200     285
162.3600     290
162.4000     293
162.4400     269
162.4800     293
162.5200     290
162.5600     252
162.6000     274
162.6400     281
162.6800     250
162.7200     302
162.7600     285
162.8000     304
162.8400     288
162.8800     250
162.9200     288
162.9600     262
163.0000     266
163.0400     262
163.0800     257
163.1200     292
163.1600     283
163.2000     272
163.2400     290
163.2800     279
163.3200     252
163.3600     291
163.4000     275
163.4400     270
163.4800     285
163.5200     260
163.5600     286
163.6000     266
163.6400     266
163.6800     288
163.7200     272
163.7600     292
163.8000     259
163.8400     289
163.8800     262
163.9200     267
163.9600     287
164.0000     276
164.0400     273
164.0800     289
164.1200     285
164.1600     296
164.2000     274
164.2400     276
164.2800     294
164.3200     283
164.3600     265
164.4000     264
164.4400     272
164.4800     255
164.5200     239
164.5600     256
164.6000     303
164.6400     261
164.6800     269
164.7200     258
164.7600     266
164.8000     277
164.8400     261
164.8800     284
164.9200     284
164.9600     276
165.0000     247
165.0400     266
165.0800     298
165.1200     279
165.1600     244
165.2000     254
165.2400     301
165.2800     296
165.3200     285
165.3600     272
165.4000     263
165.4400     288
165.4800     273
165.5200     285
165.5600     296
165.6000     269
165.6400     258
165.6800     295
165.7200     241
165.7600     256
165.8000     270
165.8400     278
165.8800     260
165.9200     267
165.9600     268
166.0000     253
166.0400     270
166.0800     245
166.1200     274
166.1600     257
166.2000     245
166.2400     245
166.2800     254
166.3200     245
166.3600     280
166.4000     268
166.4400     275
166.4800     268
166.5200     258
166.5600     251
166.6000     261
166.6400     276
166.6800     235
166.7200     250
166.7600     230
166.8000     273
166.8400     267
166.8800     247
166.9200     236
166.9600     272