File: XRD_Tool/XRD_Tool/bin/LDA_sample_name_56789_Psi-30_20180603-123053.txt
143.0000     243
143.0400     278
143.0800     258
143.1200     245
143.1600     247
143.2000     258
143.2400     270
143.2800     244
143.3200     248
143.3600     233
143.4000     261
143.4400     235
143.4800     280
143.5200     257
143.5600     262
143.6000     268
143.6400     278
143.6800     280
143.7200     237
143.7600     299
143.8000     282
143.8400     263
143.8800     266
143.9200     231
143.9600     272
144.0000     255
144.0400     282
144.0800     271
144.1200     279
144.1600     251
144.2000     283
144.2400     270
144.2800     252
144.3200     256
144.3600     270
144.4000     269
144.4400     272
144.4800     250
144.5200     251
144.5600     303
144.6000     259
144.6400     265
144.6800     280
144.7200     254
144.7600     263
144.8000     243
144.8400     250
144.8800     265
144.9200     288
144.9600     257
145.0000     263
145.0400     251
145.0800     238
145.1200     283
145.1600     251
145.2000     230
145.2400     259
145.2800     248
145.3200     293
145.3600     293
145.4000     223
145.4400     272
145.4800     253
145.5200     264
145.5600     277
145.6000     262
145.6400     273
145.6800     239
145.7200     268
145.7600     260
145.8000     242
145.8400     238
145.8800     284
145.9200     266
145.9600     252
146.0000     265
146.0400     266
146.0800     247
146.1200     244
146.1600     223
146.2000     270
146.2400     274
146.2800     257
146.3200     265
146.3600     268
146.4000     247
146.4400     270
146.4800     269
146.5200     270
146.5600     253
146.6000     254
146.6400     267
146.6800     256
146.7200     277
146.7600     264
146.8000     284
146.8400     269
146.8800     290
146.9200     259
146.9600     293
147.0000     251
147.0400     258
147.0800     276
147.1200     261
147.1600     259
147.2000     252
147.2400     257
147.2800     258
147.3200     247
147.3600     268
147.4000     259
147.4400     278
147.4800     231
147.5200     278
147.5600     276
147.6000     283
147.6400     295
147.6800     281
147.7200     304
147.7600     285
147.8000     279
147.8400     281
147.8800     283
147.9200     287
147.9600     310
148.0000     300
148.0400     249
148.0800     265
148.1200     285
148.1600     264
148.2000     290
148.2400     270
148.2800     287
148.3200     279
148.3600     276
148.4000     265
148.4400     295
148.4800     277
148.5200     279
148.5600     281
148.6000     275
148.6400     287
148.6800     294
148.7200     279
148.7600     279
148.8000     276
148.8400     263
148.8800     293
148.9200     279
148.9600     288
149.0000     287
149.0400     287
149.0800     279
149.1200     290
149.1600     281
149.2000     274
149.2400     306
149.2800     280
149.3200     285
149.3600     287
149.4000     288
149.4400     282
149.4800     276
149.5200     293
149.5600     278
149.6000     283
149.6400     303
149.6800     306
149.7200     290
149.7600     275
149.8000     331
149.8400     298
149.8800     311
149.9200     327
149.9600     299
150.0000     314
150.0400     296
150.0800     311
150.1200     275
150.1600     329
150.2000     282
150.2400     287
150.2800     285
150.3200     310
150.3600     325
150.4000     313
150.4400     307
150.4800     315
150.5200     301
150.5600     298
150.6000     294
150.6400     316
150.6800     286
150.7200     321
150.7600     288
150.8000     325
150.8400     339
150.8800     316
150.9200     318
150.9600     314
151.0000     338
151.0400     331
151.0800     345
151.1200     329
151.1600     316
151.2000     320
151.2400     328
151.2800     326
151.3200     333
151.3600     338
151.4000     366
151.4400     375
151.4800     380
151.5200     337
151.5600     369
151.6000     349
151.6400     334
151.6800     358
151.7200     386
151.7600     329
151.8000     360
151.8400     345
151.8800     341
151.9200     364
151.9600     348
152.0000     386
152.0400     367
152.0800     363
152.1200     404
152.1600     361
152.2000     359
152.2400     403
152.2800     383
152.3200     378
152.3600     386
152.4000     380
152.4400     426
152.4800     462
152.5200     485
152.5600     430
152.6000     472
152.6400     436
152.6800     456
152.7200     438
152.7600     479
152.8000     479
152.8400     481
152.8800     492
152.9200     495
152.9600     477
153.0000     548
153.0400     511
153.0800     540
153.1200     567
153.1600     537
153.2000     548
153.2400     538
153.2800     574
153.3200     608
153.3600     611
153.4000     566
153.4400     580
153.4800     625
153.5200     662
153.5600     651
153.6000     701
153.6400     633
153.6800     609
153.7200     702
153.7600     656
153.8000     623
153.8400     625
153.8800     664
153.9200     709
153.9600     663
154.0000     746
154.0400     691
154.0800     684
154.1200     697
154.1600     697
154.2000     745
154.2400     763
154.2800     722
154.3200     748
154.3600     678
154.4000     723
154.4400     708
154.4800     648
154.5200     705
154.5600     725
154.6000     672
154.6400     733
154.6800     694
154.7200     719
154.7600     733
154.8000     710
154.8400     678
154.8800     706
154.9200     747
154.9600     719
155.0000     705
155.0400     671
155.0800     715
155.1200     649
155.1600     690
155.2000     673
155.2400     662
155.2800     621
155.3200     653
155.3600     647
155.4000     651
155.4400     661
155.4800     666
155.5200     624
155.5600     602
155.6000     604
155.6400     629
155.6800     573
155.7200     672
155.7600     584
155.8000     522
155.8400     603
155.8800     531
155.9200     565
155.9600     526
156.0000     493
156.0400     558
156.0800     535
156.1200     531
156.1600     542
156.2000     508
156.2400     531
156.2800     531
156.3200     514
156.3600     506
156.4000     435
156.4400     484
156.4800     469
156.5200     474
156.5600     516
156.6000     450
156.6400     450
156.6800     510
156.7200     432
156.7600     440
156.8000     434
156.8400     454
156.8800     506
156.9200     404
156.9600     448
157.0000     405
157.0400     415
157.0800     429
157.1200     419
157.1600     419
157.2000     410
157.2400     397
157.2800     403
157.3200     388
157.3600     373
157.4000     376
157.4400     357
157.4800     397
157.5200     401
157.5600     396
157.6000     382
157.6400     387
157.6800     425
157.7200     407
157.7600     359
157.8000     371
157.8400     366
157.8800     346
157.9200     364
157.9600     363
158.0000     370
158.0400     384
158.0800     353
158.1200     331
158.1600     333
158.2000     379
158.2400     340
158.2800     370
158.3200     360
158.3600     300
158.4000     377
158.4400     358
158.4800     333
158.5200     330
158.5600     324
158.6000     339
158.6400     356
158.6800     318
158.7200     367
158.7600     316
158.8000     338
158.8400     355
158.8800     286
158.9200     335
158.9600     348
159.0000     336
159.0400     300
159.0800     304
159.1200     283
159.1600     295
159.2000     315
159.2400     334
159.2800     335
159.3200     312
159.3600     297
159.4000     265
159.4400     334
159.4800     313
159.5200     334
159.5600     316
159.6000     339
159.6400     303
159.6800     299
159.7200     263
159.7600     284
159.8000     277
159.8400     281
159.8800     330
159.9200     324
159.9600     319
160.0000     294
160.0400     294
160.0800     298
160.1200     309
160.1600     299
160.2000     293
160.2400     273
160.2800     241
160.3200     281
160.3600     281
160.4000     302
160.4400     277
160.4800     324
160.5200     305
160.5600     272
160.6000     272
160.6400     302
160.6800     269
160.7200     270
160.7600     275
160.8000     288
160.8400     299
160.8800     313
160.9200     289
160.9600     294
161.0000     286
161.0400     308
161.0800     275
161.1200     285
161.1600     274
161.2000     316
161.2400     267
161.2800     328
161.3200     303
161.3600     315
161.4000     280
161.4400     245
161.4800     266
161.5200     301
161.5600     269
161.6000     294
161.6400     262
161.6800     294
161.7200     286
161.7600     295
161.8000     259
161.8400     290
161.8800     280
161.9200     282
161.9600     260
162.0000     257
162.0400     280
162.0800     272
162.1200     238
162.1600     290
162.2000     274
162.2400     267
162.2800     288
162.3200     296
162.3600     272
162.4000     271
162.4400     284
162.4800     277
162.5200     274
162.5600     271
162.6000     283
162.6400     272
162.6800     261
162.7200     310
162.7600     280
162.8000     295
162.8400     288
162.8800     275
162.9200     290
162.9600     268
163.0000     270
163.0400     293
163.0800     269
163.1200     280
163.1600     260
163.2000     286
163.2400     270
163.2800     303
163.3200     263
163.3600     283
163.4000     272
163.4400     267
163.4800     267
163.5200     299
163.5600     278
163.6000     290
163.6400     266
163.6800     265
163.7200     264
163.7600     282
163.8000     263
163.8400     244
163.8800     252
163.9200     277
163.9600     281
164.0000     274
164.0400     305
164.0800     302
164.1200     289
164.1600     243
164.2000     271
164.2400     294
164.2800     255
164.3200     277
164.3600     264
164.4000     280
164.4400     313
164.4800     293
164.5200     276
164.5600     256
164.6000     272
164.6400     270
164.6800     235
164.7200     256
164.7600     286
164.8000     253
164.8400     294
164.8800     262
164.9200     262
164.9600     277
165.0000     278
165.0400     282
165.0800     279
165.1200     287
165.1600     268
165.2000     271
165.2400     260
165.2800     234
165.3200     269
165.3600     267
165.4000     248
165.4400     266
165.4800     293
165.5200     280
165.5600     288
165.6000     298
165.6400     244
165.6800     260
165.7200     256
165.7600     283
165.8000     276
165.8400     264
165.8800     275
165.9200     270
165.9600     288
166.0000     242
166.0400     254
166.0800     254
166.1200     254
166.1600     269
166.2000     261
166.2400     251
166.2800     250
166.3200     277
166.3600     278
166.4000     280
166.4400     266
166.4800     281
166.5200     249
166.5600     285
166.6000     276
166.6400     252
166.6800     257
166.7200     252
166.7600     278
166.8000     229
166.8400     232
166.8800     239
166.9200     270
166.9600     239