File: XRD_Tool/log/20180528-log_2.txt
[2018-05-28 02:31:21 966] UART Recv: @2[
 153.4400      285
 153.4600      292
]

0A203135332E343430302020202020203238350D0A203135332E343630302020202020203239320D
[2018-05-28 02:31:22 086] UART Recv: @2[
 153.4800      275
 153.5000      268
 153.5200      291
]

0A203135332E343830302020202020203237350D0A203135332E353030302020202020203236380D0A203135332E353230302020202020203239310D
[2018-05-28 02:31:22 246] UART Recv: @2[
 153.5400      305
 153.5600      324
]

0A203135332E353430302020202020203330350D0A203135332E353630302020202020203332340D
[2018-05-28 02:31:22 375] UART Recv: @2[
 153.5800      308
 153.6000      314
]

0A203135332E353830302020202020203330380D0A203135332E363030302020202020203331340D
[2018-05-28 02:31:22 503] UART Recv: @2[
 153.6200      279
 153.6400      304
]

0A203135332E363230302020202020203237390D0A203135332E363430302020202020203330340D
[2018-05-28 02:31:22 630] UART Recv: @2[
 153.6600      346
 153.6800      313
]

0A203135332E363630302020202020203334360D0A203135332E363830302020202020203331330D
[2018-05-28 02:31:22 758] CountDown Run[27,85]

[2018-05-28 02:31:22 886] UART Recv: @2[
 153.7400      322
 153.7600      292
]

0A203135332E373430302020202020203332320D0A203135332E373630302020202020203239320D
[2018-05-28 02:31:23 014] UART Recv: @2[
 153.7800      365
 153.8000      352
]

0A203135332E373830302020202020203336350D0A203135332E383030302020202020203335320D
[2018-05-28 02:31:23 142] UART Recv: @2[
 153.8200      320
 153.8400      379
]

0A203135332E383230302020202020203332300D0A203135332E383430302020202020203337390D
[2018-05-28 02:31:23 270] UART Recv: @2[
 153.8600      333
 153.8800      366
]

0A203135332E383630302020202020203333330D0A203135332E383830302020202020203336360D
[2018-05-28 02:31:23 398] UART Recv: @2[
 153.9000      394
 153.9200      362
]

0A203135332E393030302020202020203339340D0A203135332E393230302020202020203336320D
[2018-05-28 02:31:23 542] UART Recv: @2[
 153.9400      360
 153.9600      376
]

0A203135332E393430302020202020203336300D0A203135332E393630302020202020203337360D
[2018-05-28 02:31:23 670] UART Recv: @2[
 153.9800      414
 154.0000      392
]

0A203135332E393830302020202020203431340D0A203135342E303030302020202020203339320D
[2018-05-28 02:31:23 773] CountDown Run[28,85]

[2018-05-28 02:31:23 797] UART Recv: @2[
 154.0200      398
 154.0400      432
]

0A203135342E303230302020202020203339380D0A203135342E303430302020202020203433320D
[2018-05-28 02:31:23 926] UART Recv: @2[
 154.0600      419
 154.0800      449
]

0A203135342E303630302020202020203431390D0A203135342E303830302020202020203434390D
[2018-05-28 02:31:24 053] UART Recv: @2[
 154.1000      393
 154.1200      423
]

0A203135342E313030302020202020203339330D0A203135342E313230302020202020203432330D
[2018-05-28 02:31:24 181] UART Recv: @2[
 154.1400      432
 154.1600      424
]

0A203135342E313430302020202020203433320D0A203135342E313630302020202020203432340D
[2018-05-28 02:31:24 336] UART Recv: @2[
 154.1800      448
 154.2000      453
 154.2200      423
]

0A203135342E313830302020202020203434380D0A203135342E323030302020202020203435330D0A203135342E323230302020202020203432330D
[2018-05-28 02:31:24 501] UART Recv: @2[
 154.2400      459
 154.2600      450
]

0A203135342E323430302020202020203435390D0A203135342E323630302020202020203435300D
[2018-05-28 02:31:24 629] UART Recv: @2[
 154.2800      435
 154.3000      456
]

0A203135342E323830302020202020203433350D0A203135342E333030302020202020203435360D
[2018-05-28 02:31:24 773] UART Recv: @2[
 154.3200      486
 154.3400      439
]

0A203135342E333230302020202020203438360D0A203135342E333430302020202020203433390D
[2018-05-28 02:31:24 807] CountDown Run[29,85]

[2018-05-28 02:31:24 901] UART Recv: @2[
 154.3600      467
 154.3800      476
]

0A203135342E333630302020202020203436370D0A203135342E333830302020202020203437360D
[2018-05-28 02:31:25 029] UART Recv: @2[
 154.4000      490
 154.4200      467
]

0A203135342E343030302020202020203439300D0A203135342E343230302020202020203436370D
[2018-05-28 02:31:25 158] UART Recv: @2[
 154.4400      454
 154.4600      492
]

0A203135342E343430302020202020203435340D0A203135342E343630302020202020203439320D
[2018-05-28 02:31:25 285] UART Recv: @2[
 154.4800      472
 154.5000      517
]

0A203135342E343830302020202020203437320D0A203135342E353030302020202020203531370D
[2018-05-28 02:31:25 412] UART Recv: @2[
 154.5200      517
 154.5400      459
]

0A203135342E353230302020202020203531370D0A203135342E353430302020202020203435390D
[2018-05-28 02:31:25 540] UART Recv: @2[
 154.5600      512
 154.5800      465
]

0A203135342E353630302020202020203531320D0A203135342E353830302020202020203436350D
[2018-05-28 02:31:25 668] UART Recv: @2[
 154.6000      459
 154.6200      500
]

0A203135342E363030302020202020203435390D0A203135342E363230302020202020203530300D
[2018-05-28 02:31:25 796] UART Recv: @2[
 154.6400      492
 154.6600      492
]

0A203135342E363430302020202020203439320D0A203135342E363630302020202020203439320D
[2018-05-28 02:31:25 829] CountDown Run[30,85]

[2018-05-28 02:31:25 940] UART Recv: @2[
 154.6800      480
 154.7000      489
]

0A203135342E363830302020202020203438300D0A203135342E373030302020202020203438390D
[2018-05-28 02:31:26 069] UART Recv: @2[
 154.7200      464
 154.7400      487
]

0A203135342E373230302020202020203436340D0A203135342E373430302020202020203438370D
[2018-05-28 02:31:26 201] UART Recv: @2[
 154.7600      515
 154.7800      479
]

0A203135342E373630302020202020203531350D0A203135342E373830302020202020203437390D
[2018-05-28 02:31:26 325] UART Recv: @2[
 154.8000      495
 154.8200      511
]

0A203135342E383030302020202020203439350D0A203135342E383230302020202020203531310D
[2018-05-28 02:31:26 452] UART Recv: @2[
 154.8400      481
 154.8600      458
]

0A203135342E383430302020202020203438310D0A203135342E383630302020202020203435380D
[2018-05-28 02:31:26 580] UART Recv: @2[
 154.8800      493
 154.9000      447
]

0A203135342E383830302020202020203439330D0A203135342E393030302020202020203434370D
[2018-05-28 02:31:26 708] UART Recv: @2[
 154.9200      476
 154.9400      500
]

0A203135342E393230302020202020203437360D0A203135342E393430302020202020203530300D
[2018-05-28 02:31:26 815] CountDown Run[31,85]

[2018-05-28 02:31:26 836] UART Recv: @2[
 154.9600      472
 154.9800      507
]

0A203135342E393630302020202020203437320D0A203135342E393830302020202020203530370D
[2018-05-28 02:31:26 967] UART Recv: @2[
 155.0000      461
C=]

0A203135352E303030302020202020203436310D0A433D
[2018-05-28 02:31:27 863] Python Cmd: [python D:\PCTool\XRD_Tool_20180527_2100\XRD_Tool\XRD_Tool\bin\Debug\CurveFittingPearson_20180526.py 1 D:\PCTool\XRD_Tool\XRD_Tool\bin\Debug\SDD_sample_name_001_Psi-0_20180528-023054.txt 0 > D:\PCTool\XRD_Tool_20180527_2100\XRD_Tool\XRD_Tool\bin\Debug\CalcResult.py]

[2018-05-28 02:31:27 863] Python Result: [154.61,501.816,2.48892,0.549578,2.48892]

[2018-05-28 02:31:27 863] UART Send: [PAT15
]

50415431350D
[2018-05-28 02:31:27 864] CountDown Run[32,85]

[2018-05-28 02:31:27 988] UART Recv: @2[PAT15
C=

C=]

50415431350D0A433D0A0D0A433D
[2018-05-28 02:31:27 990] UART Send: [SAT145
]

5341543134350D
[2018-05-28 02:31:28 116] UART Recv: @2[SAT145
]

5341543134350D
[2018-05-28 02:31:28 843] CountDown Run[33,85]

[2018-05-28 02:31:29 858] CountDown Run[34,85]

[2018-05-28 02:31:30 875] CountDown Run[35,85]

[2018-05-28 02:31:31 886] CountDown Run[36,85]

[2018-05-28 02:31:32 304] UART Recv: @2[
C=]

0A433D
[2018-05-28 02:31:32 306] UART Send: [SKM25 30
]

534B4D32352033300D
[2018-05-28 02:31:32 432] UART Recv: @2[SKM25 30
]

534B4D32352033300D
[2018-05-28 02:31:32 900] CountDown Run[37,85]

[2018-05-28 02:31:33 913] CountDown Run[38,85]

[2018-05-28 02:31:34 931] CountDown Run[39,85]

[2018-05-28 02:31:35 663] UART Recv: @2[
C=]

0A433D
[2018-05-28 02:31:35 665] UART Send: [RKM
]

524B4D0D
[2018-05-28 02:31:35 790] UART Recv: @2[RKM
24.95

30.02
C=]

524B4D0D32342E39350D200D33302E30320D0A433D
[2018-05-28 02:31:35 792] UART Send: [SSC10
]

53534331300D
[2018-05-28 02:31:35 792] CountDown start[0,85]

[2018-05-28 02:31:35 918] UART Recv: @2[SSC10
 145.0000       55
]

53534331300D0A203134352E303030302020202020202035350D0A
[2018-05-28 02:31:35 944] CountDown Run[0,85]

[2018-05-28 02:31:36 046] UART Recv: @2[ 145.0200       42
 145.0400       49
]

203134352E303230302020202020202034320D0A203134352E303430302020202020202034390D
[2018-05-28 02:31:36 174] UART Recv: @2[
 145.0600       48
 145.0800       60
]

0A203134352E303630302020202020202034380D0A203134352E303830302020202020202036300D
[2018-05-28 02:31:36 302] UART Recv: @2[
 145.1000       53
 145.1200       48
]

0A203134352E313030302020202020202035330D0A203134352E313230302020202020202034380D
[2018-05-28 02:31:36 430] UART Recv: @2[
 145.1400       45
 145.1600       43
]

0A203134352E313430302020202020202034350D0A203134352E313630302020202020202034330D
[2018-05-28 02:31:36 574] UART Recv: @2[
 145.1800       46
 145.2000       33
 145.2200       46
]

0A203134352E313830302020202020202034360D0A203134352E323030302020202020202033330D0A203134352E323230302020202020202034360D
[2018-05-28 02:31:36 750] UART Recv: @2[
 145.2400       37
 145.2600       49
]

0A203134352E323430302020202020202033370D0A203134352E323630302020202020202034390D
[2018-05-28 02:31:36 877] UART Recv: @2[
 145.2800       46
 145.3000       54
]

0A203134352E323830302020202020202034360D0A203134352E333030302020202020202035340D
[2018-05-28 02:31:36 955] CountDown Run[1,85]

[2018-05-28 02:31:37 005] UART Recv: @2[
 145.3200       53
 145.3400       59
]

0A203134352E333230302020202020202035330D0A203134352E333430302020202020202035390D
[2018-05-28 02:31:37 133] UART Recv: @2[
 145.3600       49
 145.3800       58
]

0A203134352E333630302020202020202034390D0A203134352E333830302020202020202035380D
[2018-05-28 02:31:37 261] UART Recv: @2[
 145.4000       62
 145.4200       58
]

0A203134352E343030302020202020202036320D0A203134352E343230302020202020202035380D
[2018-05-28 02:31:37 405] UART Recv: @2[
 145.4400       43
 145.4600       40
]

0A203134352E343430302020202020202034330D0A203134352E343630302020202020202034300D
[2018-05-28 02:31:37 533] UART Recv: @2[
 145.4800       52
 145.5000       49
]

0A203134352E343830302020202020202035320D0A203134352E353030302020202020202034390D
[2018-05-28 02:31:37 661] UART Recv: @2[
 145.5200       43
 145.5400       41
]

0A203134352E353230302020202020202034330D0A203134352E353430302020202020202034310D
[2018-05-28 02:31:37 789] UART Recv: @2[
 145.5600       60
 145.5800       53
]

0A203134352E353630302020202020202036300D0A203134352E353830302020202020202035330D
[2018-05-28 02:31:37 917] UART Recv: @2[
 145.6000       46
 145.6200       42
]

0A203134352E363030302020202020202034360D0A203134352E363230302020202020202034320D
[2018-05-28 02:31:37 969] CountDown Run[2,85]

[2018-05-28 02:31:38 045] UART Recv: @2[
 145.6400       31
 145.6600       43
]

0A203134352E363430302020202020202033310D0A203134352E363630302020202020202034330D
[2018-05-28 02:31:38 173] UART Recv: @2[
 145.6800       35
 145.7000       36
]

0A203134352E363830302020202020202033350D0A203134352E373030302020202020202033360D
[2018-05-28 02:31:38 301] UART Recv: @2[
 145.7200       48
 145.7400       46
]

0A203134352E373230302020202020202034380D0A203134352E373430302020202020202034360D
[2018-05-28 02:31:38 429] UART Recv: @2[
 145.7600       40
 145.7800       47
]

0A203134352E373630302020202020202034300D0A203134352E373830302020202020202034370D
[2018-05-28 02:31:38 572] UART Recv: @2[
 145.8000       54
 145.8200       45
]

0A203134352E383030302020202020202035340D0A203134352E383230302020202020202034350D
[2018-05-28 02:31:38 700] UART Recv: @2[
 145.8400       45
 145.8600       42
]

0A203134352E383430302020202020202034350D0A203134352E383630302020202020202034320D
[2018-05-28 02:31:38 828] UART Recv: @2[
 145.8800       33
 145.9000       53
]

0A203134352E383830302020202020202033330D0A203134352E393030302020202020202035330D
[2018-05-28 02:31:38 956] UART Recv: @2[
 145.9200       39
 145.9400       43
]

0A203134352E393230302020202020202033390D0A203134352E393430302020202020202034330D
[2018-05-28 02:31:38 984] CountDown Run[3,85]

[2018-05-28 02:31:39 084] UART Recv: @2[
 145.9600       28
 145.9800       40
]

0A203134352E393630302020202020202032380D0A203134352E393830302020202020202034300D
[2018-05-28 02:31:39 212] UART Recv: @2[
 146.0000       51
 146.0200       53
]

0A203134362E303030302020202020202035310D0A203134362E303230302020202020202035330D
[2018-05-28 02:31:39 340] UART Recv: @2[
 146.0400       49
 146.0600       45
]

0A203134362E303430302020202020202034390D0A203134362E303630302020202020202034350D
[2018-05-28 02:31:39 468] UART Recv: @2[
 146.0800       53
 146.1000       49
]

0A203134362E303830302020202020202035330D0A203134362E313030302020202020202034390D
[2018-05-28 02:31:39 596] UART Recv: @2[
 146.1200       42
 146.1400       41
]

0A203134362E313230302020202020202034320D0A203134362E313430302020202020202034310D
[2018-05-28 02:31:39 724] UART Recv: @2[
 146.1600       42
 146.1800       39
]

0A203134362E313630302020202020202034320D0A203134362E313830302020202020202033390D
[2018-05-28 02:31:39 868] UART Recv: @2[
 146.2000       36
 146.2200       45
]

0A203134362E323030302020202020202033360D0A203134362E323230302020202020202034350D
[2018-05-28 02:31:39 996] CountDown Run[4,85]

[2018-05-28 02:31:39 998] UART Recv: @2[
 146.2400       45
 146.2600       51
]

0A203134362E323430302020202020202034350D0A203134362E323630302020202020202035310D
[2018-05-28 02:31:40 123] UART Recv: @2[
 146.2800       28
 146.3000       46
]

0A203134362E323830302020202020202032380D0A203134362E333030302020202020202034360D
[2018-05-28 02:31:40 252] UART Recv: @2[
 146.3200       60
 146.3400       50
]

0A203134362E333230302020202020202036300D0A203134362E333430302020202020202035300D
[2018-05-28 02:31:40 380] UART Recv: @2[
 146.3600       45
 146.3800       48
]

0A203134362E333630302020202020202034350D0A203134362E333830302020202020202034380D
[2018-05-28 02:31:40 507] UART Recv: @2[
 146.4000       43
 146.4200       43
]

0A203134362E343030302020202020202034330D0A203134362E343230302020202020202034330D
[2018-05-28 02:31:40 635] UART Recv: @2[
 146.4400       50
 146.4600       41
]

0A203134362E343430302020202020202035300D0A203134362E343630302020202020202034310D
[2018-05-28 02:31:40 763] UART Recv: @2[
 146.4800       43
 146.5000       46
]

0A203134362E343830302020202020202034330D0A203134362E353030302020202020202034360D
[2018-05-28 02:31:40 892] UART Recv: @2[
 146.5200       41
 146.5400       49
]

0A203134362E353230302020202020202034310D0A203134362E353430302020202020202034390D
[2018-05-28 02:31:41 012] CountDown Run[5,85]

[2018-05-28 02:31:41 019] UART Recv: @2[
 146.5600       34
 146.5800       56
]

0A203134362E353630302020202020202033340D0A203134362E353830302020202020202035360D
[2018-05-28 02:31:41 163] UART Recv: @2[
 146.6000       48
 146.6200       55
]

0A203134362E363030302020202020202034380D0A203134362E363230302020202020202035350D
[2018-05-28 02:31:41 291] UART Recv: @2[
 146.6400       38
 146.6600       34
]

0A203134362E363430302020202020202033380D0A203134362E363630302020202020202033340D
[2018-05-28 02:31:41 419] UART Recv: @2[
 146.6800       40
 146.7000       57
]

0A203134362E363830302020202020202034300D0A203134362E373030302020202020202035370D
[2018-05-28 02:31:41 547] UART Recv: @2[
 146.7200       57
 146.7400       51
]

0A203134362E373230302020202020202035370D0A203134362E373430302020202020202035310D
[2018-05-28 02:31:41 676] UART Recv: @2[
 146.7600       57
 146.7800       49
]

0A203134362E373630302020202020202035370D0A203134362E373830302020202020202034390D
[2018-05-28 02:31:41 802] UART Recv: @2[
 146.8000       42
 146.8200       46
]

0A203134362E383030302020202020202034320D0A203134362E383230302020202020202034360D
[2018-05-28 02:31:41 930] UART Recv: @2[
 146.8400       43
 146.8600       58
]

0A203134362E383430302020202020202034330D0A203134362E383630302020202020202035380D
[2018-05-28 02:31:42 028] CountDown Run[6,85]

[2018-05-28 02:31:42 058] UART Recv: @2[
 146.8800       50
 146.9000       49
]

0A203134362E383830302020202020202035300D0A203134362E393030302020202020202034390D
[2018-05-28 02:31:42 190] UART Recv: @2[
 146.9200       35
 146.9400       54
]

0A203134362E393230302020202020202033350D0A203134362E393430302020202020202035340D
[2018-05-28 02:31:42 330] UART Recv: @2[
 146.9600       49
 146.9800       51
]

0A203134362E393630302020202020202034390D0A203134362E393830302020202020202035310D
[2018-05-28 02:31:42 458] UART Recv: @2[
 147.0000       57
 147.0200       49
]

0A203134372E303030302020202020202035370D0A203134372E303230302020202020202034390D
[2018-05-28 02:31:42 591] UART Recv: @2[
 147.0400       45
 147.0600       45
]

0A203134372E303430302020202020202034350D0A203134372E303630302020202020202034350D
[2018-05-28 02:31:42 716] UART Recv: @2[
 147.0800       48
 147.1000       57
]

0A203134372E303830302020202020202034380D0A203134372E313030302020202020202035370D
[2018-05-28 02:31:42 842] UART Recv: @2[
 147.1200       50
 147.1400       52
]

0A203134372E313230302020202020202035300D0A203134372E313430302020202020202035320D
[2018-05-28 02:31:42 970] UART Recv: @2[
 147.1600       51
 147.1800       63
]

0A203134372E313630302020202020202035310D0A203134372E313830302020202020202036330D
[2018-05-28 02:31:43 040] CountDown Run[7,85]

[2018-05-28 02:31:43 098] UART Recv: @2[
 147.2000       47
 147.2200       60
]

0A203134372E323030302020202020202034370D0A203134372E323230302020202020202036300D
[2018-05-28 02:31:43 226] UART Recv: @2[
 147.2400       40
 147.2600       60
]

0A203134372E323430302020202020202034300D0A203134372E323630302020202020202036300D
[2018-05-28 02:31:43 353] UART Recv: @2[
 147.2800       42
 147.3000       50
]

0A203134372E323830302020202020202034320D0A203134372E333030302020202020202035300D
[2018-05-28 02:31:43 500] UART Recv: @2[
 147.3200       43
 147.3400       48
]

0A203134372E333230302020202020202034330D0A203134372E333430302020202020202034380D
[2018-05-28 02:31:43 625] UART Recv: @2[
 147.3600       54
 147.3800       50
]

0A203134372E333630302020202020202035340D0A203134372E333830302020202020202035300D
[2018-05-28 02:31:43 753] UART Recv: @2[
 147.4000       54
 147.4200       51
]

0A203134372E343030302020202020202035340D0A203134372E343230302020202020202035310D
[2018-05-28 02:31:43 881] UART Recv: @2[
 147.4400       48
 147.4600       42
]

0A203134372E343430302020202020202034380D0A203134372E343630302020202020202034320D
[2018-05-28 02:31:44 010] UART Recv: @2[
 147.4800       34
 147.5000       50
]

0A203134372E343830302020202020202033340D0A203134372E353030302020202020202035300D
[2018-05-28 02:31:44 052] CountDown Run[8,85]

[2018-05-28 02:31:44 137] UART Recv: @2[
 147.5200       57
 147.5400       44
]

0A203134372E353230302020202020202035370D0A203134372E353430302020202020202034340D
[2018-05-28 02:31:44 265] UART Recv: @2[
 147.5600       52
 147.5800       50
]

0A203134372E353630302020202020202035320D0A203134372E353830302020202020202035300D
[2018-05-28 02:31:44 393] UART Recv: @2[
 147.6000       55
 147.6200       55
]

0A203134372E363030302020202020202035350D0A203134372E363230302020202020202035350D
[2018-05-28 02:31:44 524] UART Recv: @2[
 147.6400       50
 147.6600       51
]

0A203134372E363430302020202020202035300D0A203134372E363630302020202020202035310D
[2018-05-28 02:31:44 652] UART Recv: @2[
 147.6800       45
 147.7000       44
]

0A203134372E363830302020202020202034350D0A203134372E373030302020202020202034340D
[2018-05-28 02:31:44 793] UART Recv: @2[
 147.7200       55
 147.7400       47
]

0A203134372E373230302020202020202035350D0A203134372E373430302020202020202034370D
[2018-05-28 02:31:44 921] UART Recv: @2[
 147.7600       49
 147.7800       53
]

0A203134372E373630302020202020202034390D0A203134372E373830302020202020202035330D
[2018-05-28 02:31:45 048] UART Recv: @2[
 147.8000       45
 147.8200       56
]

0A203134372E383030302020202020202034350D0A203134372E383230302020202020202035360D
[2018-05-28 02:31:45 083] CountDown Run[9,85]

[2018-05-28 02:31:45 181] UART Recv: @2[
 147.8400       59
 147.8600       43
]

0A203134372E383430302020202020202035390D0A203134372E383630302020202020202034330D
[2018-05-28 02:31:45 304] UART Recv: @2[
 147.8800       50
 147.9000       45
]

0A203134372E383830302020202020202035300D0A203134372E393030302020202020202034350D
[2018-05-28 02:31:45 432] UART Recv: @2[
 147.9200       53
 147.9400       53
]

0A203134372E393230302020202020202035330D0A203134372E393430302020202020202035330D
[2018-05-28 02:31:45 560] UART Recv: @2[
 147.9600       57
 147.9800       60
]

0A203134372E393630302020202020202035370D0A203134372E393830302020202020202036300D
[2018-05-28 02:31:45 688] UART Recv: @2[
 148.0000       35
 148.0200       44
]

0A203134382E303030302020202020202033350D0A203134382E303230302020202020202034340D
[2018-05-28 02:31:45 816] UART Recv: @2[
 148.0400       46
 148.0600       52
]

0A203134382E303430302020202020202034360D0A203134382E303630302020202020202035320D
[2018-05-28 02:31:45 944] UART Recv: @2[
 148.0800       45
 148.1000       44
]

0A203134382E303830302020202020202034350D0A203134382E313030302020202020202034340D
[2018-05-28 02:31:46 083] CountDown Run[10,85]

[2018-05-28 02:31:46 088] UART Recv: @2[
 148.1200       51
 148.1400       54
]

0A203134382E313230302020202020202035310D0A203134382E313430302020202020202035340D
[2018-05-28 02:31:46 217] UART Recv: @2[
 148.1600       36
 148.1800       43
]

0A203134382E313630302020202020202033360D0A203134382E313830302020202020202034330D
[2018-05-28 02:31:46 344] UART Recv: @2[
 148.2000       59
 148.2200       47
]

0A203134382E323030302020202020202035390D0A203134382E323230302020202020202034370D
[2018-05-28 02:31:46 472] UART Recv: @2[
 148.2400       46
 148.2600       46
]

0A203134382E323430302020202020202034360D0A203134382E323630302020202020202034360D
[2018-05-28 02:31:46 600] UART Recv: @2[
 148.2800       47
 148.3000       58
]

0A203134382E323830302020202020202034370D0A203134382E333030302020202020202035380D
[2018-05-28 02:31:46 728] UART Recv: @2[
 148.3200       50
 148.3400       42
]

0A203134382E333230302020202020202035300D0A203134382E333430302020202020202034320D
[2018-05-28 02:31:46 855] UART Recv: @2[
 148.3600       50
 148.3800       35
]

0A203134382E333630302020202020202035300D0A203134382E333830302020202020202033350D
[2018-05-28 02:31:46 988] UART Recv: @2[
 148.4000       44
 148.4200       43
]

0A203134382E343030302020202020202034340D0A203134382E343230302020202020202034330D
[2018-05-28 02:31:47 097] CountDown Run[11,85]

[2018-05-28 02:31:47 111] UART Recv: @2[
 148.4400       54
 148.4600       53
]

0A203134382E343430302020202020202035340D0A203134382E343630302020202020202035330D
[2018-05-28 02:31:47 239] UART Recv: @2[
 148.4800       59
 148.5000       60
]

0A203134382E343830302020202020202035390D0A203134382E353030302020202020202036300D
[2018-05-28 02:31:47 383] UART Recv: @2[
 148.5200       45
 148.5400       42
]

0A203134382E353230302020202020202034350D0A203134382E353430302020202020202034320D
[2018-05-28 02:31:47 513] UART Recv: @2[
 148.5600       63
 148.5800       49
]

0A203134382E353630302020202020202036330D0A203134382E353830302020202020202034390D
[2018-05-28 02:31:47 639] UART Recv: @2[
 148.6000       39
 148.6200       50
]

0A203134382E363030302020202020202033390D0A203134382E363230302020202020202035300D
[2018-05-28 02:31:47 768] UART Recv: @2[
 148.6400       55
 148.6600       56
]

0A203134382E363430302020202020202035350D0A203134382E363630302020202020202035360D
[2018-05-28 02:31:47 895] UART Recv: @2[
 148.6800       54
 148.7000       52
]

0A203134382E363830302020202020202035340D0A203134382E373030302020202020202035320D
[2018-05-28 02:31:48 023] UART Recv: @2[
 148.7200       66
 148.7400       64
]

0A203134382E373230302020202020202036360D0A203134382E373430302020202020202036340D
[2018-05-28 02:31:48 109] CountDown Run[12,85]

[2018-05-28 02:31:48 152] UART Recv: @2[
 148.7600       49
 148.7800       42
]

0A203134382E373630302020202020202034390D0A203134382E373830302020202020202034320D
[2018-05-28 02:31:48 288] UART Recv: @2[
 148.8000       62
 148.8200       50
 148.]

0A203134382E383030302020202020202036320D0A203134382E383230302020202020202035300D0A203134382E
[2018-05-28 02:31:48 423] UART Recv: @2[8400       62
 148.8600       63
]

383430302020202020202036320D0A203134382E383630302020202020202036330D
[2018-05-28 02:31:48 551] UART Recv: @2[
 148.8800       47
 148.9000       46
]

0A203134382E383830302020202020202034370D0A203134382E393030302020202020202034360D
[2018-05-28 02:31:48 679] UART Recv: @2[
 148.9200       53
 148.9400       50
]

0A203134382E393230302020202020202035330D0A203134382E393430302020202020202035300D
[2018-05-28 02:31:48 807] UART Recv: @2[
 148.9600       59
 148.9800       53
]

0A203134382E393630302020202020202035390D0A203134382E393830302020202020202035330D
[2018-05-28 02:31:48 935] UART Recv: @2[
 149.0000       53
 149.0200       53
]

0A203134392E303030302020202020202035330D0A203134392E303230302020202020202035330D
[2018-05-28 02:31:49 062] UART Recv: @2[
 149.0400       43
 149.0600       59
]

0A203134392E303430302020202020202034330D0A203134392E303630302020202020202035390D
[2018-05-28 02:31:49 124] CountDown Run[13,85]

[2018-05-28 02:31:49 190] UART Recv: @2[
 149.0800       64
 149.1000       56
]

0A203134392E303830302020202020202036340D0A203134392E313030302020202020202035360D
[2018-05-28 02:31:49 318] UART Recv: @2[
 149.1200       59
 149.1400       46
]

0A203134392E313230302020202020202035390D0A203134392E313430302020202020202034360D
[2018-05-28 02:31:49 446] UART Recv: @2[
 149.1600       55
 149.1800       46
]

0A203134392E313630302020202020202035350D0A203134392E313830302020202020202034360D
[2018-05-28 02:31:49 574] UART Recv: @2[
 149.2000       48
 149.2200       77
]

0A203134392E323030302020202020202034380D0A203134392E323230302020202020202037370D
[2018-05-28 02:31:49 702] UART Recv: @2[
 149.2400       55
 149.2600       48
]

0A203134392E323430302020202020202035350D0A203134392E323630302020202020202034380D
[2018-05-28 02:31:49 846] UART Recv: @2[
 149.2800       48
 149.3000       53
]

0A203134392E323830302020202020202034380D0A203134392E333030302020202020202035330D
[2018-05-28 02:31:49 974] UART Recv: @2[
 149.3200       46
 149.3400       52
]

0A203134392E333230302020202020202034360D0A203134392E333430302020202020202035320D
[2018-05-28 02:31:50 102] UART Recv: @2[
 149.3600       46
 149.3800       61
]

0A203134392E333630302020202020202034360D0A203134392E333830302020202020202036310D
[2018-05-28 02:31:50 138] CountDown Run[14,85]

[2018-05-28 02:31:50 229] UART Recv: @2[
 149.4000       51
 149.4200       57
]

0A203134392E343030302020202020202035310D0A203134392E343230302020202020202035370D
[2018-05-28 02:31:50 357] UART Recv: @2[
 149.4400       53
 149.4600       50
]

0A203134392E343430302020202020202035330D0A203134392E343630302020202020202035300D
[2018-05-28 02:31:50 485] UART Recv: @2[
 149.4800       56
 149.5000       66
]

0A203134392E343830302020202020202035360D0A203134392E353030302020202020202036360D
[2018-05-28 02:31:50 613] UART Recv: @2[
 149.5200       52
 149.5400       57
]

0A203134392E353230302020202020202035320D0A203134392E353430302020202020202035370D
[2018-05-28 02:31:50 741] UART Recv: @2[
 149.5600       53
 149.5800       54
]

0A203134392E353630302020202020202035330D0A203134392E353830302020202020202035340D
[2018-05-28 02:31:50 869] UART Recv: @2[
 149.6000       51
 149.6200       57
]

0A203134392E363030302020202020202035310D0A203134392E363230302020202020202035370D
[2018-05-28 02:31:50 998] UART Recv: @2[
 149.6400       59
 149.6600       60
]

0A203134392E363430302020202020202035390D0A203134392E363630302020202020202036300D
[2018-05-28 02:31:51 141] UART Recv: @2[
 149.6800       56
 149.7000       51
]

0A203134392E363830302020202020202035360D0A203134392E373030302020202020202035310D
[2018-05-28 02:31:51 168] CountDown Run[15,85]

[2018-05-28 02:31:51 270] UART Recv: @2[
 149.7200       54
 149.7400       51
]

0A203134392E373230302020202020202035340D0A203134392E373430302020202020202035310D
[2018-05-28 02:31:51 397] UART Recv: @2[
 149.7600       61
 149.7800       62
]

0A203134392E373630302020202020202036310D0A203134392E373830302020202020202036320D
[2018-05-28 02:31:51 525] UART Recv: @2[
 149.8000       46
 149.8200       46
]

0A203134392E383030302020202020202034360D0A203134392E383230302020202020202034360D
[2018-05-28 02:31:51 653] UART Recv: @2[
 149.8400       52
 149.8600       49
]

0A203134392E383430302020202020202035320D0A203134392E383630302020202020202034390D
[2018-05-28 02:31:51 780] UART Recv: @2[
 149.8800       65
 149.9000       52
]

0A203134392E383830302020202020202036350D0A203134392E393030302020202020202035320D
[2018-05-28 02:31:51 908] UART Recv: @2[
 149.9200       57
 149.9400       52
]

0A203134392E393230302020202020202035370D0A203134392E393430302020202020202035320D
[2018-05-28 02:31:52 036] UART Recv: @2[
 149.9600       51
 149.9800       55
]

0A203134392E393630302020202020202035310D0A203134392E393830302020202020202035350D
[2018-05-28 02:31:52 164] UART Recv: @2[
 150.0000       56
 150.0200       56
]

0A203135302E303030302020202020202035360D0A203135302E303230302020202020202035360D
[2018-05-28 02:31:52 191] CountDown Run[16,85]

[2018-05-28 02:31:52 308] UART Recv: @2[
 150.0400       70
 150.0600       63
]

0A203135302E303430302020202020202037300D0A203135302E303630302020202020202036330D
[2018-05-28 02:31:52 436] UART Recv: @2[
 150.0800       53
 150.1000       48
]

0A203135302E303830302020202020202035330D0A203135302E313030302020202020202034380D
[2018-05-28 02:31:52 564] UART Recv: @2[
 150.1200       65
 150.1400       70
]

0A203135302E313230302020202020202036350D0A203135302E313430302020202020202037300D
[2018-05-28 02:31:52 692] UART Recv: @2[
 150.1600       45
 150.1800       75
]

0A203135302E313630302020202020202034350D0A203135302E313830302020202020202037350D
[2018-05-28 02:31:52 820] UART Recv: @2[
 150.2000       71
 150.2200       72
]

0A203135302E323030302020202020202037310D0A203135302E323230302020202020202037320D
[2018-05-28 02:31:52 948] UART Recv: @2[
 150.2400       51
 150.2600       66
]

0A203135302E323430302020202020202035310D0A203135302E323630302020202020202036360D
[2018-05-28 02:31:53 076] UART Recv: @2[
 150.2800       53
 150.3000       50
]

0A203135302E323830302020202020202035330D0A203135302E333030302020202020202035300D
[2018-05-28 02:31:53 179] CountDown Run[17,85]

[2018-05-28 02:31:53 204] UART Recv: @2[
 150.3200       52
 150.3400       48
]

0A203135302E333230302020202020202035320D0A203135302E333430302020202020202034380D
[2018-05-28 02:31:53 332] UART Recv: @2[
 150.3600       42
 150.3800       86
]

0A203135302E333630302020202020202034320D0A203135302E333830302020202020202038360D
[2018-05-28 02:31:53 459] UART Recv: @2[
 150.4000       68
 150.4200       41
]

0A203135302E343030302020202020202036380D0A203135302E343230302020202020202034310D
[2018-05-28 02:31:53 604] UART Recv: @2[
 150.4400       67
 150.4600       63
]

0A203135302E343430302020202020202036370D0A203135302E343630302020202020202036330D
[2018-05-28 02:31:53 752] UART Recv: @2[
 150.4800       62
 150.5000       72
 150.5200       62
]

0A203135302E343830302020202020202036320D0A203135302E353030302020202020202037320D0A203135302E353230302020202020202036320D
[2018-05-28 02:31:53 923] UART Recv: @2[
 150.5400       63
 150.5600       81
]

0A203135302E353430302020202020202036330D0A203135302E353630302020202020202038310D
[2018-05-28 02:31:54 051] UART Recv: @2[
 150.5800       63
 150.6000       67
]

0A203135302E353830302020202020202036330D0A203135302E363030302020202020202036370D
[2018-05-28 02:31:54 179] UART Recv: @2[
 150.6200       61
 150.6400       59
]

0A203135302E363230302020202020202036310D0A203135302E363430302020202020202035390D
[2018-05-28 02:31:54 210] CountDown Run[18,85]

[2018-05-28 02:31:54 307] UART Recv: @2[
 150.6600       74
 150.6800       68
]

0A203135302E363630302020202020202037340D0A203135302E363830302020202020202036380D
[2018-05-28 02:31:54 435] UART Recv: @2[
 150.7000       68
 150.7200       59
]

0A203135302E373030302020202020202036380D0A203135302E373230302020202020202035390D
[2018-05-28 02:31:54 563] UART Recv: @2[
 150.7400       79
 150.7600       77
]

0A203135302E373430302020202020202037390D0A203135302E373630302020202020202037370D
[2018-05-28 02:31:54 691] UART Recv: @2[
 150.7800       68
 150.8000       65
]

0A203135302E373830302020202020202036380D0A203135302E383030302020202020202036350D
[2018-05-28 02:31:54 835] UART Recv: @2[
 150.8200       96
 150.8400       88
]

0A203135302E383230302020202020202039360D0A203135302E383430302020202020202038380D
[2018-05-28 02:31:54 963] UART Recv: @2[
 150.8600       70
 150.8800       67
]

0A203135302E383630302020202020202037300D0A203135302E383830302020202020202036370D
[2018-05-28 02:31:55 107] UART Recv: @2[
 150.9000       72
 150.9200       76
 150.9400       64
]

0A203135302E393030302020202020202037320D0A203135302E393230302020202020202037360D0A203135302E393430302020202020202036340D
[2018-05-28 02:31:55 208] CountDown Run[19,85]

[2018-05-28 02:31:55 283] UART Recv: @2[
 150.9600       65
 150.9800       66
]

0A203135302E393630302020202020202036350D0A203135302E393830302020202020202036360D
[2018-05-28 02:31:55 410] UART Recv: @2[
 151.0000       79
 151.0200       68
]

0A203135312E303030302020202020202037390D0A203135312E303230302020202020202036380D
[2018-05-28 02:31:55 538] UART Recv: @2[
 151.0400       77
 151.0600       68
]

0A203135312E303430302020202020202037370D0A203135312E303630302020202020202036380D
[2018-05-28 02:31:55 683] UART Recv: @2[
 151.0800       87
 151.1000       72
 151.1200]

0A203135312E303830302020202020202038370D0A203135312E313030302020202020202037320D0A203135312E31323030
[2018-05-28 02:31:55 810] UART Recv: @2[       89
 151.1400       65
 15]

2020202020202038390D0A203135312E313430302020202020202036350D0A203135
[2018-05-28 02:31:55 938] UART Recv: @2[1.1600       91
 151.1800       61
]

312E313630302020202020202039310D0A203135312E313830302020202020202036310D
[2018-05-28 02:31:56 066] UART Recv: @2[
 151.2000       68
 151.2200       68
]

0A203135312E323030302020202020202036380D0A203135312E323230302020202020202036380D
[2018-05-28 02:31:56 194] UART Recv: @2[
 151.2400       75
 151.2600       80
]

0A203135312E323430302020202020202037350D0A203135312E323630302020202020202038300D
[2018-05-28 02:31:56 222] CountDown Run[20,85]

[2018-05-28 02:31:56 322] UART Recv: @2[
 151.2800       68
 151.3000       87
]

0A203135312E323830302020202020202036380D0A203135312E333030302020202020202038370D
[2018-05-28 02:31:56 450] UART Recv: @2[
 151.3200       79
 151.3400       78
]

0A203135312E333230302020202020202037390D0A203135312E333430302020202020202037380D
[2018-05-28 02:31:56 578] UART Recv: @2[
 151.3600       72
 151.3800       75
]

0A203135312E333630302020202020202037320D0A203135312E333830302020202020202037350D
[2018-05-28 02:31:56 706] UART Recv: @2[
 151.4000       82
 151.4200       86
]

0A203135312E343030302020202020202038320D0A203135312E343230302020202020202038360D
[2018-05-28 02:31:56 833] UART Recv: @2[
 151.4400       72
 151.4600       70
]

0A203135312E343430302020202020202037320D0A203135312E343630302020202020202037300D
[2018-05-28 02:31:56 961] UART Recv: @2[
 151.4800       81
 151.5000       73
]

0A203135312E343830302020202020202038310D0A203135312E353030302020202020202037330D
[2018-05-28 02:31:57 089] UART Recv: @2[
 151.5200       83
 151.5400       78
]

0A203135312E353230302020202020202038330D0A203135312E353430302020202020202037380D
[2018-05-28 02:31:57 217] UART Recv: @2[
 151.5600       92
 151.5800       92
]

0A203135312E353630302020202020202039320D0A203135312E353830302020202020202039320D
[2018-05-28 02:31:57 244] CountDown Run[21,85]

[2018-05-28 02:31:57 361] UART Recv: @2[
 151.6000       87
 151.6200       74
]

0A203135312E363030302020202020202038370D0A203135312E363230302020202020202037340D
[2018-05-28 02:31:57 489] UART Recv: @2[
 151.6400       83
 151.6600       86
]

0A203135312E363430302020202020202038330D0A203135312E363630302020202020202038360D
[2018-05-28 02:31:57 617] UART Recv: @2[
 151.6800      107
 151.7000       86
]

0A203135312E363830302020202020203130370D0A203135312E373030302020202020202038360D
[2018-05-28 02:31:57 745] UART Recv: @2[
 151.7200       81
 151.7400       85
]

0A203135312E373230302020202020202038310D0A203135312E373430302020202020202038350D
[2018-05-28 02:31:57 873] UART Recv: @2[
 151.7600      102
 151.7800      102
]

0A203135312E373630302020202020203130320D0A203135312E373830302020202020203130320D
[2018-05-28 02:31:58 001] UART Recv: @2[
 151.8000      106
 151.8200       89
]

0A203135312E383030302020202020203130360D0A203135312E383230302020202020202038390D
[2018-05-28 02:31:58 129] UART Recv: @2[
 151.8400       82
 151.8600      104
]

0A203135312E383430302020202020202038320D0A203135312E383630302020202020203130340D
[2018-05-28 02:31:58 250] CountDown Run[22,85]

[2018-05-28 02:31:58 257] UART Recv: @2[
 151.8800      103
 151.9000       76
]

0A203135312E383830302020202020203130330D0A203135312E393030302020202020202037360D
[2018-05-28 02:31:58 392] UART Recv: @2[
 151.9200      102
 151.9400      110
]

0A203135312E393230302020202020203130320D0A203135312E393430302020202020203131300D
[2018-05-28 02:31:58 529] UART Recv: @2[
 151.9600      119
 151.9800      113
]

0A203135312E393630302020202020203131390D0A203135312E393830302020202020203131330D
[2018-05-28 02:31:58 656] UART Recv: @2[
 152.0000      100
 152.0200      110
]

0A203135322E303030302020202020203130300D0A203135322E303230302020202020203131300D
[2018-05-28 02:31:58 784] UART Recv: @2[
 152.0400      121
 152.0600       99
]

0A203135322E303430302020202020203132310D0A203135322E303630302020202020202039390D
[2018-05-28 02:31:58 912] UART Recv: @2[
 152.0800      113
 152.1000       89
]

0A203135322E303830302020202020203131330D0A203135322E313030302020202020202038390D
[2018-05-28 02:31:59 040] UART Recv: @2[
 152.1200       89
 152.1400      109
]

0A203135322E313230302020202020202038390D0A203135322E313430302020202020203130390D
[2018-05-28 02:31:59 168] UART Recv: @2[
 152.1600      105
 152.1800      114
]

0A203135322E313630302020202020203130350D0A203135322E313830302020202020203131340D
[2018-05-28 02:31:59 271] CountDown Run[23,85]

[2018-05-28 02:31:59 296] UART Recv: @2[
 152.2000      115
 152.2200      126
]

0A203135322E323030302020202020203131350D0A203135322E323230302020202020203132360D
[2018-05-28 02:31:59 424] UART Recv: @2[
 152.2400      104
 152.2600      116
]

0A203135322E323430302020202020203130340D0A203135322E323630302020202020203131360D
[2018-05-28 02:31:59 552] UART Recv: @2[
 152.2800      104
 152.3000      118
]

0A203135322E323830302020202020203130340D0A203135322E333030302020202020203131380D
[2018-05-28 02:31:59 680] UART Recv: @2[
 152.3200      110
 152.3400      122
]

0A203135322E333230302020202020203131300D0A203135322E333430302020202020203132320D
[2018-05-28 02:31:59 824] UART Recv: @2[
 152.3600      115
 152.3800      117
]

0A203135322E333630302020202020203131350D0A203135322E333830302020202020203131370D
[2018-05-28 02:31:59 955] UART Recv: @2[
 152.4000      105
 152.4200      104
]

0A203135322E343030302020202020203130350D0A203135322E343230302020202020203130340D
[2018-05-28 02:32:00 080] UART Recv: @2[
 152.4400      131
 152.4600      114
]

0A203135322E343430302020202020203133310D0A203135322E343630302020202020203131340D
[2018-05-28 02:32:00 207] UART Recv: @2[
 152.4800      137
 152.5000      121
]

0A203135322E343830302020202020203133370D0A203135322E353030302020202020203132310D
[2018-05-28 02:32:00 279] CountDown Run[24,85]

[2018-05-28 02:32:00 338] UART Recv: @2[
 152.5200      134
 152.5400      130
]

[...]
 151.1000       87
]

0A203135312E303830302020202020202036390D0A203135312E313030302020202020202038370D
[2018-05-28 02:32:53 583] UART Recv: @2[
 151.1200       83
 151.1400       77
]

0A203135312E313230302020202020202038330D0A203135312E313430302020202020202037370D
[2018-05-28 02:32:53 727] UART Recv: @2[
 151.1600       84
 151.1800       90
]

0A203135312E313630302020202020202038340D0A203135312E313830302020202020202039300D
[2018-05-28 02:32:53 832] CountDown Run[19,85]

[2018-05-28 02:32:53 855] UART Recv: @2[
 151.2000       96
 151.2200       86
]

0A203135312E323030302020202020202039360D0A203135312E323230302020202020202038360D
[2018-05-28 02:32:53 983] UART Recv: @2[
 151.2400       87
 151.2600       82
]

0A203135312E323430302020202020202038370D0A203135312E323630302020202020202038320D
[2018-05-28 02:32:54 111] UART Recv: @2[
 151.2800       92
 151.3000       94
]

0A203135312E323830302020202020202039320D0A203135312E333030302020202020202039340D
[2018-05-28 02:32:54 238] UART Recv: @2[
 151.3200       81
 151.3400       77
]

0A203135312E333230302020202020202038310D0A203135312E333430302020202020202037370D
[2018-05-28 02:32:54 366] UART Recv: @2[
 151.3600      105
 151.3800       94
]

0A203135312E333630302020202020203130350D0A203135312E333830302020202020202039340D
[2018-05-28 02:32:54 510] UART Recv: @2[
 151.4000      102
 151.4200       99
 151.4400      ]

0A203135312E343030302020202020203130320D0A203135312E343230302020202020202039390D0A203135312E34343030202020202020
[2018-05-28 02:32:54 638] UART Recv: @2[ 94
 151.4600      110
 151.480]

2039340D0A203135312E343630302020202020203131300D0A203135312E343830
[2018-05-28 02:32:54 766] UART Recv: @2[0       98
 151.5000       86
 1]

302020202020202039380D0A203135312E353030302020202020202038360D0A2031
[2018-05-28 02:32:54 846] CountDown Run[20,85]

[2018-05-28 02:32:54 894] UART Recv: @2[51.5200       91
 151.5400       94
]

35312E353230302020202020202039310D0A203135312E353430302020202020202039340D
[2018-05-28 02:32:55 022] UART Recv: @2[
 151.5600      102
 151.5800       97
]

0A203135312E353630302020202020203130320D0A203135312E353830302020202020202039370D
[2018-05-28 02:32:55 150] UART Recv: @2[
 151.6000      106
 151.6200       90
]

0A203135312E363030302020202020203130360D0A203135312E363230302020202020202039300D
[2018-05-28 02:32:55 278] UART Recv: @2[
 151.6400       92
 151.6600       99
]

0A203135312E363430302020202020202039320D0A203135312E363630302020202020202039390D
[2018-05-28 02:32:55 406] UART Recv: @2[
 151.6800      106
 151.7000      106
]

0A203135312E363830302020202020203130360D0A203135312E373030302020202020203130360D
[2018-05-28 02:32:55 534] UART Recv: @2[
 151.7200      104
 151.7400      106
]

0A203135312E373230302020202020203130340D0A203135312E373430302020202020203130360D
[2018-05-28 02:32:55 662] UART Recv: @2[
 151.7600      115
 151.7800      122
]

0A203135312E373630302020202020203131350D0A203135312E373830302020202020203132320D
[2018-05-28 02:32:55 790] UART Recv: @2[
 151.8000      118
 151.8200      104
]

0A203135312E383030302020202020203131380D0A203135312E383230302020202020203130340D
[2018-05-28 02:32:55 860] CountDown Run[21,85]

[2018-05-28 02:32:55 917] UART Recv: @2[
 151.8400      109
 151.8600      105
]

0A203135312E383430302020202020203130390D0A203135312E383630302020202020203130350D
[2018-05-28 02:32:56 045] UART Recv: @2[
 151.8800       87
 151.9000      120
]

0A203135312E383830302020202020202038370D0A203135312E393030302020202020203132300D
[2018-05-28 02:32:56 189] UART Recv: @2[
 151.9200      104
 151.9400      114
]

0A203135312E393230302020202020203130340D0A203135312E393430302020202020203131340D
[2018-05-28 02:32:56 322] UART Recv: @2[
 151.9600       96
 151.9800      120
]

0A203135312E393630302020202020202039360D0A203135312E393830302020202020203132300D
[2018-05-28 02:32:56 445] UART Recv: @2[
 152.0000      112
 152.0200      110
]

0A203135322E303030302020202020203131320D0A203135322E303230302020202020203131300D
[2018-05-28 02:32:56 573] UART Recv: @2[
 152.0400      111
 152.0600      122
]

0A203135322E303430302020202020203131310D0A203135322E303630302020202020203132320D
[2018-05-28 02:32:56 701] UART Recv: @2[
 152.0800      134
 152.1000      125
]

0A203135322E303830302020202020203133340D0A203135322E313030302020202020203132350D
[2018-05-28 02:32:56 829] UART Recv: @2[
 152.1200      109
 152.1400      142
]

0A203135322E313230302020202020203130390D0A203135322E313430302020202020203134320D
[2018-05-28 02:32:56 875] CountDown Run[22,85]

[2018-05-28 02:32:56 957] UART Recv: @2[
 152.1600      108
 152.1800      146
]

0A203135322E313630302020202020203130380D0A203135322E313830302020202020203134360D
[2018-05-28 02:32:57 085] UART Recv: @2[
 152.2000      139
 152.2200      139
]

0A203135322E323030302020202020203133390D0A203135322E323230302020202020203133390D
[2018-05-28 02:32:57 216] UART Recv: @2[
 152.2400      129
 152.2600      137
]

0A203135322E323430302020202020203132390D0A203135322E323630302020202020203133370D
[2018-05-28 02:32:57 342] UART Recv: @2[
 152.2800      118
 152.3000      138
]

0A203135322E323830302020202020203131380D0A203135322E333030302020202020203133380D
[2018-05-28 02:32:57 484] UART Recv: @2[
 152.3200      129
 152.3400      120
]

0A203135322E333230302020202020203132390D0A203135322E333430302020202020203132300D
[2018-05-28 02:32:57 612] UART Recv: @2[
 152.3600      130
 152.3800      152
]

0A203135322E333630302020202020203133300D0A203135322E333830302020202020203135320D
[2018-05-28 02:32:57 740] UART Recv: @2[
 152.4000      153
 152.4200      139
]

0A203135322E343030302020202020203135330D0A203135322E343230302020202020203133390D
[2018-05-28 02:32:57 868] UART Recv: @2[
 152.4400      154
 152.4600      153
]

0A203135322E343430302020202020203135340D0A203135322E343630302020202020203135330D
[2018-05-28 02:32:57 897] CountDown Run[23,85]

[2018-05-28 02:32:57 996] UART Recv: @2[
 152.4800      163
 152.5000      138
]

0A203135322E343830302020202020203136330D0A203135322E353030302020202020203133380D
[2018-05-28 02:32:58 124] UART Recv: @2[
 152.5200      146
 152.5400      139
]

0A203135322E353230302020202020203134360D0A203135322E353430302020202020203133390D
[2018-05-28 02:32:58 252] UART Recv: @2[
 152.5600      165
 152.5800      159
]

0A203135322E353630302020202020203136350D0A203135322E353830302020202020203135390D
[2018-05-28 02:32:58 380] UART Recv: @2[
 152.6000      144
 152.6200      168
]

0A203135322E363030302020202020203134340D0A203135322E363230302020202020203136380D
[2018-05-28 02:32:58 508] UART Recv: @2[
 152.6400      154
 152.6600      137
]

0A203135322E363430302020202020203135340D0A203135322E363630302020202020203133370D
[2018-05-28 02:32:58 636] UART Recv: @2[
 152.6800      161
 152.7000      160
]

0A203135322E363830302020202020203136310D0A203135322E373030302020202020203136300D
[2018-05-28 02:32:58 780] UART Recv: @2[
 152.7200      173
 152.7400      171
]

0A203135322E373230302020202020203137330D0A203135322E373430302020202020203137310D
[2018-05-28 02:32:58 903] CountDown Run[24,85]

[2018-05-28 02:32:58 908] UART Recv: @2[
 152.7600      177
 152.7800      181
]

0A203135322E373630302020202020203137370D0A203135322E373830302020202020203138310D
[2018-05-28 02:32:59 036] UART Recv: @2[
 152.8000      180
 152.8200      158
]

0A203135322E383030302020202020203138300D0A203135322E383230302020202020203135380D
[2018-05-28 02:32:59 163] UART Recv: @2[
 152.8400      187
 152.8600      163
]

0A203135322E383430302020202020203138370D0A203135322E383630302020202020203136330D
[2018-05-28 02:32:59 291] UART Recv: @2[
 152.8800      182
 152.9000      180
]

0A203135322E383830302020202020203138320D0A203135322E393030302020202020203138300D
[2018-05-28 02:32:59 419] UART Recv: @2[
 152.9200      190
 152.9400      177
]

0A203135322E393230302020202020203139300D0A203135322E393430302020202020203137370D
[2018-05-28 02:32:59 547] UART Recv: @2[
 152.9600      214
 152.9800      194
]

0A203135322E393630302020202020203231340D0A203135322E393830302020202020203139340D
[2018-05-28 02:32:59 676] UART Recv: @2[
 153.0000      226
 153.0200      216
]

0A203135332E303030302020202020203232360D0A203135332E303230302020202020203231360D
[2018-05-28 02:32:59 803] UART Recv: @2[
 153.0400      221
 153.0600      230
]

0A203135332E303430302020202020203232310D0A203135332E303630302020202020203233300D
[2018-05-28 02:32:59 916] CountDown Run[25,85]

[2018-05-28 02:32:59 948] UART Recv: @2[
 153.0800      203
 153.1000      214
]

0A203135332E303830302020202020203230330D0A203135332E313030302020202020203231340D
[2018-05-28 02:33:00 075] UART Recv: @2[
 153.1200      213
 153.1400      202
]

0A203135332E313230302020202020203231330D0A203135332E313430302020202020203230320D
[2018-05-28 02:33:00 203] UART Recv: @2[
 153.1600      213
 153.1800      223
]

0A203135332E313630302020202020203231330D0A203135332E313830302020202020203232330D
[2018-05-28 02:33:00 331] UART Recv: @2[
 153.2000      244
 153.2200      209
]

0A203135332E323030302020202020203234340D0A203135332E323230302020202020203230390D
[2018-05-28 02:33:00 460] UART Recv: @2[
 153.2400      259
 153.2600      246
]

0A203135332E323430302020202020203235390D0A203135332E323630302020202020203234360D
[2018-05-28 02:33:00 597] UART Recv: @2[
 153.2800      263
 153.3000      245
 153.3200      242
]

0A203135332E323830302020202020203236330D0A203135332E333030302020202020203234350D0A203135332E333230302020202020203234320D
[2018-05-28 02:33:00 778] UART Recv: @2[
 153.3400      234
 153.3600      259
]

0A203135332E333430302020202020203233340D0A203135332E333630302020202020203235390D
[2018-05-28 02:33:00 906] UART Recv: @2[
 153.3800      252
 153.4000      266
]

0A203135332E333830302020202020203235320D0A203135332E343030302020202020203236360D
[2018-05-28 02:33:00 935] CountDown Run[26,85]

[2018-05-28 02:33:01 034] UART Recv: @2[
 153.4200      267
 153.4400      272
]

0A203135332E343230302020202020203236370D0A203135332E343430302020202020203237320D
[2018-05-28 02:33:01 180] UART Recv: @2[
 153.4600      272
 153.4800      299
]

0A203135332E343630302020202020203237320D0A203135332E343830302020202020203239390D
[2018-05-28 02:33:01 306] UART Recv: @2[
 153.5000      285
 153.5200      288
]

0A203135332E353030302020202020203238350D0A203135332E353230302020202020203238380D
[2018-05-28 02:33:01 452] UART Recv: @2[
 153.5400      296
 153.5600      269
 153.5800      285
]

0A203135332E353430302020202020203239360D0A203135332E353630302020202020203236390D0A203135332E353830302020202020203238350D
[2018-05-28 02:33:01 626] UART Recv: @2[
 153.6000      287
 153.6200      345
]

0A203135332E363030302020202020203238370D0A203135332E363230302020202020203334350D
[2018-05-28 02:33:01 754] UART Recv: @2[
 153.6400      333
 153.6600      318
]

0A203135332E363430302020202020203333330D0A203135332E363630302020202020203331380D
[2018-05-28 02:33:01 882] UART Recv: @2[
 153.6800      338
 153.7000      320
]

0A203135332E363830302020202020203333380D0A203135332E373030302020202020203332300D
[2018-05-28 02:33:01 944] CountDown Run[27,85]

[2018-05-28 02:33:02 010] UART Recv: @2[
 153.7200      329
 153.7400      339
]

0A203135332E373230302020202020203332390D0A203135332E373430302020202020203333390D
[2018-05-28 02:33:02 138] UART Recv: @2[
 153.7600      353
 153.7800      357
]

0A203135332E373630302020202020203335330D0A203135332E373830302020202020203335370D
[2018-05-28 02:33:02 266] UART Recv: @2[
 153.8000      353
 153.8200      336
]

0A203135332E383030302020202020203335330D0A203135332E383230302020202020203333360D
[2018-05-28 02:33:02 414] UART Recv: @2[
 153.8400      350
 153.8600      366
]

0A203135332E383430302020202020203335300D0A203135332E383630302020202020203336360D
[2018-05-28 02:33:02 537] UART Recv: @2[
 153.8800      371
 153.9000      388
]

0A203135332E383830302020202020203337310D0A203135332E393030302020202020203338380D
[2018-05-28 02:33:02 665] UART Recv: @2[
 153.9200      383
 153.9400      391
]

0A203135332E393230302020202020203338330D0A203135332E393430302020202020203339310D
[2018-05-28 02:33:02 794] UART Recv: @2[
 153.9600      384
 153.9800      409
]

0A203135332E393630302020202020203338340D0A203135332E393830302020202020203430390D
[2018-05-28 02:33:02 938] UART Recv: @2[
 154.0000      410
 154.0200      435
 154.0400      425
]

0A203135342E303030302020202020203431300D0A203135342E303230302020202020203433350D0A203135342E303430302020202020203432350D
[2018-05-28 02:33:02 966] CountDown Run[28,85]

[2018-05-28 02:33:03 113] UART Recv: @2[
 154.0600      402
 154.0800      418
]

0A203135342E303630302020202020203430320D0A203135342E303830302020202020203431380D
[2018-05-28 02:33:03 241] UART Recv: @2[
 154.1000      432
 154.1200      423
]

0A203135342E313030302020202020203433320D0A203135342E313230302020202020203432330D
[2018-05-28 02:33:03 369] UART Recv: @2[
 154.1400      416
 154.1600      415
]

0A203135342E313430302020202020203431360D0A203135342E313630302020202020203431350D
[2018-05-28 02:33:03 497] UART Recv: @2[
 154.1800      416
 154.2000      444
]

0A203135342E313830302020202020203431360D0A203135342E323030302020202020203434340D
[2018-05-28 02:33:03 625] UART Recv: @2[
 154.2200      445
 154.2400      445
]

0A203135342E323230302020202020203434350D0A203135342E323430302020202020203434350D
[2018-05-28 02:33:03 769] UART Recv: @2[
 154.2600      424
 154.2800      454
]

0A203135342E323630302020202020203432340D0A203135342E323830302020202020203435340D
[2018-05-28 02:33:03 897] UART Recv: @2[
 154.3000      446
 154.3200      471
]

0A203135342E333030302020202020203434360D0A203135342E333230302020202020203437310D
[2018-05-28 02:33:03 973] CountDown Run[29,85]

[2018-05-28 02:33:04 024] UART Recv: @2[
 154.3400      469
 154.3600      465
]

0A203135342E333430302020202020203436390D0A203135342E333630302020202020203436350D
[2018-05-28 02:33:04 152] UART Recv: @2[
 154.3800      464
 154.4000      421
]

0A203135342E333830302020202020203436340D0A203135342E343030302020202020203432310D
[2018-05-28 02:33:04 280] UART Recv: @2[
 154.4200      451
 154.4400      469
]

0A203135342E343230302020202020203435310D0A203135342E343430302020202020203436390D
[2018-05-28 02:33:04 408] UART Recv: @2[
 154.4600      490
 154.4800      485
]

0A203135342E343630302020202020203439300D0A203135342E343830302020202020203438350D
[2018-05-28 02:33:04 536] UART Recv: @2[
 154.5000      427
 154.5200      480
]

0A203135342E353030302020202020203432370D0A203135342E353230302020202020203438300D
[2018-05-28 02:33:04 664] UART Recv: @2[
 154.5400      494
 154.5600      513
]

0A203135342E353430302020202020203439340D0A203135342E353630302020202020203531330D
[2018-05-28 02:33:04 792] UART Recv: @2[
 154.5800      513
 154.6000      499
]

0A203135342E353830302020202020203531330D0A203135342E363030302020202020203439390D
[2018-05-28 02:33:04 936] UART Recv: @2[
 154.6200      499
 154.6400      462
]

0A203135342E363230302020202020203439390D0A203135342E363430302020202020203436320D
[2018-05-28 02:33:04 986] CountDown Run[30,85]

[2018-05-28 02:33:05 064] UART Recv: @2[
 154.6600      479
 154.6800      474
]

0A203135342E363630302020202020203437390D0A203135342E363830302020202020203437340D
[2018-05-28 02:33:05 192] UART Recv: @2[
 154.7000      492
 154.7200      492
]

0A203135342E373030302020202020203439320D0A203135342E373230302020202020203439320D
[2018-05-28 02:33:05 335] UART Recv: @2[
 154.7400      458
 154.7600      475
]

0A203135342E373430302020202020203435380D0A203135342E373630302020202020203437350D
[2018-05-28 02:33:05 455] UART Recv: @2[
 154.7800      512
 154.8000      492
]

0A203135342E373830302020202020203531320D0A203135342E383030302020202020203439320D
[2018-05-28 02:33:05 576] UART Recv: @2[
 154.8200      497
 154.8400      462
]

0A203135342E383230302020202020203439370D0A203135342E383430302020202020203436320D
[2018-05-28 02:33:05 703] UART Recv: @2[
 154.8600      456
 154.8800      503
]

0A203135342E383630302020202020203435360D0A203135342E383830302020202020203530330D
[2018-05-28 02:33:05 831] UART Recv: @2[
 154.9000      480
 154.9200      499
]

0A203135342E393030302020202020203438300D0A203135342E393230302020202020203439390D
[2018-05-28 02:33:05 990] UART Recv: @2[
 154.9400      467
 154.9600      511
 154.9800      500
]

0A203135342E393430302020202020203436370D0A203135342E393630302020202020203531310D0A203135342E393830302020202020203530300D
[2018-05-28 02:33:06 049] CountDown Run[31,85]

[2018-05-28 02:33:06 168] UART Recv: @2[
 155.0000      486
C=]

0A203135352E303030302020202020203438360D0A433D
[2018-05-28 02:33:06 972] Python Cmd: [python D:\PCTool\XRD_Tool_20180527_2100\XRD_Tool\XRD_Tool\bin\Debug\CurveFittingPearson_20180526.py 1 D:\PCTool\XRD_Tool\XRD_Tool\bin\Debug\SDD_sample_name_001_Psi-0_20180528-023233.txt 0 > D:\PCTool\XRD_Tool_20180527_2100\XRD_Tool\XRD_Tool\bin\Debug\CalcResult.py]

[2018-05-28 02:33:06 972] Python Result: [154.63,499.465,2.56393,0.556931,2.56393]

[2018-05-28 02:33:06 973] UART Send: [STA15
]

53544131350D
[2018-05-28 02:33:07 022] CountDown Run[32,85]

[2018-05-28 02:33:07 103] UART Recv: @2[STA15
]

53544131350D
[2018-05-28 02:33:08 036] CountDown Run[33,85]

[2018-05-28 02:33:09 043] CountDown Run[34,85]

[2018-05-28 02:33:10 057] CountDown Run[35,85]

[2018-05-28 02:33:11 071] CountDown Run[36,85]

[2018-05-28 02:33:12 085] CountDown Run[37,85]

[2018-05-28 02:33:13 099] CountDown Run[38,85]

[2018-05-28 02:33:14 113] CountDown Run[39,85]

[2018-05-28 02:33:15 127] CountDown Run[40,85]

[2018-05-28 02:33:16 143] CountDown Run[41,85]

[2018-05-28 02:33:17 155] CountDown Run[42,85]

[2018-05-28 02:33:18 169] CountDown Run[43,85]

[2018-05-28 02:33:19 184] CountDown Run[44,85]

[2018-05-28 02:33:20 197] CountDown Run[45,85]

[2018-05-28 02:33:21 211] CountDown Run[46,85]

[2018-05-28 02:33:22 225] CountDown Run[47,85]

[2018-05-28 02:33:23 505] CountDown Run[48,85]

[2018-05-28 02:33:24 253] CountDown Run[49,85]

[2018-05-28 02:33:25 267] CountDown Run[50,85]

[2018-05-28 02:33:26 281] CountDown Run[51,85]

[2018-05-28 02:33:27 295] CountDown Run[52,85]

[2018-05-28 02:33:28 309] CountDown Run[53,85]

[2018-05-28 02:33:28 585] UART Send: [/
]

2F0D
[2018-05-28 02:33:28 715] UART Recv: @2[
C=]

0A433D
[2018-05-28 02:33:28 717] UART Send: [SHC
]

5348430D
[2018-05-28 02:33:29 323] CountDown Run[54,85]

[2018-05-28 02:33:30 337] CountDown Run[55,85]

[2018-05-28 02:33:31 351] CountDown Run[56,85]

[2018-05-28 02:33:32 365] CountDown Run[57,85]

[2018-05-28 02:33:33 379] CountDown Run[58,85]

[2018-05-28 02:33:34 393] CountDown Run[59,85]

[2018-05-28 02:33:35 409] CountDown Run[60,85]

[2018-05-28 02:33:36 421] CountDown Run[61,85]

[2018-05-28 02:33:37 435] CountDown Run[62,85]

[2018-05-28 02:33:38 449] CountDown Run[63,85]

[2018-05-28 02:33:39 463] CountDown Run[64,85]

[2018-05-28 02:33:40 478] CountDown Run[65,85]

[2018-05-28 02:33:41 491] CountDown Run[66,85]

[2018-05-28 02:33:42 504] CountDown Run[67,85]

[2018-05-28 02:33:43 519] CountDown Run[68,85]

[2018-05-28 02:33:44 536] CountDown Run[69,85]

[2018-05-28 02:33:45 547] CountDown Run[70,85]

[2018-05-28 02:33:46 561] CountDown Run[71,85]

[2018-05-28 02:33:47 575] CountDown Run[72,85]

[2018-05-28 02:33:48 589] CountDown Run[73,85]

[2018-05-28 02:33:49 683] CountDown Run[74,85]

[2018-05-28 02:33:50 617] CountDown Run[75,85]

[2018-05-28 02:33:51 631] CountDown Run[76,85]

[2018-05-28 02:33:52 646] CountDown Run[77,85]

[2018-05-28 02:33:53 659] CountDown Run[78,85]

[2018-05-28 02:33:54 673] CountDown Run[79,85]

[2018-05-28 02:33:55 688] CountDown Run[80,85]

[2018-05-28 02:33:56 701] CountDown Run[81,85]

[2018-05-28 02:33:57 717] CountDown Run[82,85]

[2018-05-28 02:33:58 729] CountDown Run[83,85]

[2018-05-28 02:33:59 743] CountDown Run[84,85]

[2018-05-28 02:33:59 746] CountDown stop[85,85]

[2018-05-28 02:34:00 872] UART Send: [/
]

2F0D
[2018-05-28 02:36:40 849] UART Recv: @2[
DX-2700BH TERMINAL=
++101
]

0A44582D323730304248205445524D494E414C3D0D2B2B3130310D