File: XRD_Tool/log/20180621-log.txt
[2018-06-21 15:21:00 615]Log Start******************************************************

[2018-06-21 15:21:06 551] [UserLogin] login succeed!user=administrator,pwd=123456

[2018-06-21 15:21:06 732] [DeviceInit] Init Start
2F0D
[2018-06-21 15:21:40 804] UART Send: [/
]
0D0A433D
[2018-06-21 15:21:40 953] UART Recv: @1[
C=]
5246460D
[2018-06-21 15:21:42 499] UART Send: [RFF
]
5246460D0A2B2B3130310D0A433D
[2018-06-21 15:21:42 640] UART Recv: @1[RFF
++101
C=]
524B4D0D
[2018-06-21 15:21:47 945] UART Send: [RKM
]
524B4D0D30302E30300D200D30302E30300D0A433D
[2018-06-21 15:21:48 101] UART Recv: @1[RKM
00.00

00.00
C=]

[2018-06-21 15:21:52 188] [DeviceInit] warmup check=True

[2018-06-21 15:21:53 625] [DeviceInit] warmup confirm=False

[2018-06-21 15:21:53 625] [DeviceInit] warmup skip, GetDeviceZeroPoint
5041520D
[2018-06-21 15:21:55 469] UART Send: [PAR
]
5041520D0A4C574C33300D0A55504C37350D0A535045350D0A535450302E30320D0A494E54310D0A4D584E31300D0A4D5854310D0A4D5853302E3030350D0A4D4F44330D0A574156312E35343138340D0A54535A2034352E333530300D0A54445A2031392E333135300D0A0A433D
[2018-06-21 15:21:55 610] UART Recv: @1[PAR
LWL30
UPL75
SPE5
STP0.02
INT1
MXN10
MXT1
MXS0.005
MOD3
WAV1.54184
TSZ 45.3500
TDZ 19.3150

C=]
5041460D
[2018-06-21 15:21:56 531] UART Send: [PAF
]
5041460D
[2018-06-21 15:21:56 680] UART Recv: @1[PAF
]
0A5A54412D3030332E333634370D0A0A5A54422D3030312E313037390D0A0A5A54582D3033352E303030300D0A0A5A54592D3035302E383132350D0A0A5A545A2D3030352E303030300D0A0A5354503030302E303230300D0A0A494E543030312E303030300D0A0A535045303031320D0A0A433D
[2018-06-21 15:21:56 946] UART Recv: @1[
ZTA-003.3647

ZTB-001.1079

ZTX-035.0000

ZTY-050.8125

ZTZ-005.0000

STP000.0200

INT001.0000

SPE0012

C=]
534450310D
[2018-06-21 15:21:58 546] UART Send: [SDP1
]
534450310D
[2018-06-21 15:21:58 687] UART Recv: @1[SDP1
]
0A433D
[2018-06-21 15:21:58 827] UART Recv: @1[
C=]

[2018-06-21 15:21:58 827] [DeviceInit] Init Finish

[2018-06-21 15:22:01 170] [Parent] Menu Texture

[2018-06-21 15:23:06 662] [Parent] Menu Measure

[2018-06-21 15:23:06 724] [Measure] check 5 Axis=Unchecked

[2018-06-21 15:23:09 052] [Parent] Menu Texture

[2018-06-21 15:23:40 891] [Texture] Measure Start
2F0D
[2018-06-21 15:24:17 863] UART Send: [/
]
0D0A433D
[2018-06-21 15:24:17 957] UART Recv: @2[
C=]
4D4F44330D
[2018-06-21 15:24:47 009] UART Send: [MOD3
]
4D4F44330D0A4D4F44330D0A4D4F44330D0A433D
[2018-06-21 15:24:49 321] UART Recv: @2[MOD3
MOD3
MOD3
C=]
[2018-06-21 15:30:09 451]Log Start******************************************************

[2018-06-21 15:30:10 622] [UserLogin] login succeed!user=administrator,pwd=123456

[2018-06-21 15:30:10 732] [DeviceInit] Init Start
2F0D
[2018-06-21 15:30:12 825] UART Send: [/
]
0D0A433D
[2018-06-21 15:30:12 965] UART Recv: @1[
C=]
5246460D
[2018-06-21 15:30:14 049] UART Send: [RFF
]
5246460D0A2B2B3130310D0A433D
[2018-06-21 15:30:14 187] UART Recv: @1[RFF
++101
C=]
524B4D0D
[2018-06-21 15:30:14 952] UART Send: [RKM
]
524B4D0D30302E30300D200D30302E30300D0A433D
[2018-06-21 15:30:15 108] UART Recv: @1[RKM
00.00

00.00
C=]

[2018-06-21 15:30:17 298] [DeviceInit] Init Skip

[2018-06-21 15:30:18 735] [Parent] Menu Texture

[2018-06-21 15:30:31 748] [Parent] Menu Measure

[2018-06-21 15:30:31 795] [Measure] check 5 Axis=Unchecked

[2018-06-21 15:30:32 779] [Parent] Menu Texture

[2018-06-21 15:30:34 247] [Texture] Measure Start
2F0D
[2018-06-21 15:30:36 934] UART Send: [/
]
0D0A433D
[2018-06-21 15:30:37 028] UART Recv: @3[
C=]
53414E3135300D
[2018-06-21 15:30:41 730] UART Send: [SAN150
]
53414E3135300D
[2018-06-21 15:30:41 871] UART Recv: @3[SAN150
]
0A433D
[2018-06-21 15:30:51 197] UART Recv: @3[
C=]
[2018-06-21 15:31:47 516]Log Start******************************************************

[2018-06-21 15:31:48 770] [UserLogin] login succeed!user=administrator,pwd=123456

[2018-06-21 15:31:48 848] [DeviceInit] Init Start
2F0D
[2018-06-21 15:31:50 036] UART Send: [/
]
0D0A433D
[2018-06-21 15:31:50 176] UART Recv: @1[
C=]
5246460D
[2018-06-21 15:31:51 054] UART Send: [RFF
]
5246460D0A2B2B3130310D0A433D
[2018-06-21 15:31:51 175] UART Recv: @1[RFF
++101
C=]
524B4D0D
[2018-06-21 15:31:51 816] UART Send: [RKM
]
524B4D0D30302E30300D200D30302E30300D0A433D
[2018-06-21 15:31:51 956] UART Recv: @1[RKM
00.00

00.00
C=]

[2018-06-21 15:31:54 018] [DeviceInit] Init Skip

[2018-06-21 15:31:55 190] [Parent] Menu Texture

[2018-06-21 15:32:05 171] [Texture] Measure Start
2F0D
[2018-06-21 15:32:09 545] UART Send: [/
]
0D0A433D
[2018-06-21 15:32:09 638] UART Recv: @3[
C=]
[2018-06-21 15:37:11 734]Log Start******************************************************

[2018-06-21 15:37:12 890] [UserLogin] login succeed!user=administrator,pwd=123456

[2018-06-21 15:37:12 999] [DeviceInit] Init Start
2F0D
[2018-06-21 15:37:14 858] UART Send: [/
]
0D0A433D
[2018-06-21 15:37:15 014] UART Recv: @1[
C=]
5246460D
[2018-06-21 15:37:16 670] UART Send: [RFF
]
5246460D0A2B2B3130310D0A433D
[2018-06-21 15:37:16 811] UART Recv: @1[RFF
++101
C=]
524B4D0D
[2018-06-21 15:37:17 248] UART Send: [RKM
]
524B4D0D30302E30300D200D30302E30300D0A433D
[2018-06-21 15:37:17 388] UART Recv: @1[RKM
00.00

00.00
C=]

[2018-06-21 15:37:20 232] [DeviceInit] Init Skip

[2018-06-21 15:37:22 044] [Parent] Menu Texture

[2018-06-21 15:37:23 825] [Parent] Menu Setup

[2018-06-21 15:37:25 184] [Parent] Menu Measure

[2018-06-21 15:37:25 230] [Measure] check 5 Axis=Unchecked

[2018-06-21 15:37:25 983] [Parent] Menu Texture
[2018-06-21 15:41:15 012]Log Start******************************************************

[2018-06-21 15:41:16 558] [UserLogin] login succeed!user=administrator,pwd=123456

[2018-06-21 15:41:16 636] [DeviceInit] Init Start
2F0D
[2018-06-21 15:41:19 432] UART Send: [/
]
0D0A433D
[2018-06-21 15:41:19 572] UART Recv: @1[
C=]
5246460D
[2018-06-21 15:41:20 931] UART Send: [RFF
]
5246460D0A2B2B3130310D0A433D
[2018-06-21 15:41:21 072] UART Recv: @1[RFF
++101
C=]
524B4D0D
[2018-06-21 15:41:21 759] UART Send: [RKM
]
524B4D0D30302E30300D200D30302E30300D0A433D
[2018-06-21 15:41:21 900] UART Recv: @1[RKM
00.00

00.00
C=]

[2018-06-21 15:41:23 790] [DeviceInit] Init Skip

[2018-06-21 15:41:25 227] [Parent] Menu Setup

[2018-06-21 15:41:25 836] [Parent] Menu Texture

[2018-06-21 15:41:27 352] [Parent] Menu Measure

[2018-06-21 15:41:27 414] [Measure] check 5 Axis=Unchecked

[2018-06-21 15:41:28 367] [Parent] Menu Texture

[2018-06-21 15:41:45 785] [Texture] Measure Start
2F0D
[2018-06-21 15:41:47 831] UART Send: [/
]
0D0A433D
[2018-06-21 15:41:47 925] UART Recv: @3[
C=]
53414E3134350D
[2018-06-21 15:41:57 467] UART Send: [SAN145
]
53414E3134350D
[2018-06-21 15:41:57 623] UART Recv: @3[SAN145
]
0A433D
[2018-06-21 15:41:58 857] UART Recv: @3[
C=]
534B4D32352033300D
[2018-06-21 15:42:14 049] UART Send: [SKM25 30
]
534B4D32352033300D
[2018-06-21 15:42:14 127] UART Recv: @3[SKM25 30
]
0A433D
[2018-06-21 15:42:28 045] UART Recv: @3[
C=]
524B4D0D
[2018-06-21 15:43:10 823] UART Send: [RKM
]

[2018-06-21 15:43:10 823] [Parent] closing
524B4D0D32342E39330D200D33302E30310D0A433D
[2018-06-21 15:43:10 854] UART Recv: @3[RKM
24.93

30.01
C=]
494E54310D
[2018-06-21 15:43:36 598] UART Send: [INT1
]
494E54310D0A494E54310D0A494E54310D0A433D
[2018-06-21 15:43:40 878] UART Recv: @3[INT1
INT1
INT1
C=]

[2018-06-21 15:43:47 955] [Parent] closing
535045350D
[2018-06-21 15:44:07 878] UART Send: [SPE5
]
535045350D0A535045350D0A535045350D0A433D
[2018-06-21 15:44:08 956] UART Recv: @3[SPE5
SPE5
SPE5
C=]
53484F0D
[2018-06-21 15:44:56 393] UART Send: [SHO
]
53484F0D0A433D
[2018-06-21 15:44:56 550] UART Recv: @3[SHO
C=]
535441300D
[2018-06-21 15:45:17 789] UART Send: [STA0
]
535441300D0A433D202020302E303030300D0A433D
[2018-06-21 15:45:21 070] UART Recv: @3[STA0
C=   0.0000
C=]
535442300D
[2018-06-21 15:45:26 256] UART Send: [STB0
]
535442300D0A433D202020302E303030300D0A433D
[2018-06-21 15:45:26 397] UART Recv: @3[STB0
C=   0.0000
C=]
4353423336300D
[2018-06-21 15:45:38 082] UART Send: [CSB360
]

[2018-06-21 15:45:38 082] [Texture] totalcount=72
4353423336300D
[2018-06-21 15:45:38 238] UART Recv: @3[CSB360
]
0A23202020302E303030302020202020203630300D
[2018-06-21 15:45:39 253] UART Recv: @3[
#   0.0000      600
]
0A23202020352E303030302020202020203634380D0A23202031302E303030302020202020203632370D
[2018-06-21 15:45:41 241] UART Recv: @3[
#   5.0000      648
#  10.0000      627
]
0A23202031352E303030302020202020203636310D0A23202032302E303030302020202020203635380D
[2018-06-21 15:45:43 678] UART Recv: @3[
#  15.0000      661
#  20.0000      658
]
0A23202032352E303030302020202020203635360D0A23202033302E303030302020202020203633350D
[2018-06-21 15:45:45 505] UART Recv: @3[
#  25.0000      656
#  30.0000      635
]
0A23202033352E303030302020202020203632380D0A23202034302E303030302020202020203633310D0A23202034352E303030302020202020203631390D
[2018-06-21 15:45:48 880] UART Recv: @3[
#  35.0000      628
#  40.0000      631
#  45.0000      619
]
0A23202035302E303030302020202020203633380D0A23202035352E303030302020202020203632300D0A23202036302E303030302020202020203637310D0A23202036352E303030302020202020203636370D0A23202037302E303030302020202020203631390D0A23202037352E303030302020202020203631350D0A23202038302E303030302020202020203631320D0A23202038352E303030302020202020203633310D0A23202039302E303030302020202020203637300D
[2018-06-21 15:45:57 497] UART Recv: @3[
#  50.0000      638
#  55.0000      620
#  60.0000      671
#  65.0000      667
#  70.0000      619
#  75.0000      615
#  80.0000      612
#  85.0000      631
#  90.0000      670
]
0A23202039352E303030302020202020203635320D0A23203130302E303030302020202020203539310D
[2018-06-21 15:45:59 369] UART Recv: @3[
#  95.0000      652
# 100.0000      591
]
0A23203130352E303030302020202020203633330D
[2018-06-21 15:46:00 496] UART Recv: @3[
# 105.0000      633
]
0A23203131302E303030302020202020203633360D0A23203131352E303030302020202020203633360D0A23203132302E303030302020202020203632350D0A23203132352E303030302020202020203637360D0A23203133302E303030302020202020203633340D0A23203133352E303030302020202020203631330D0A23203134302E303030302020202020203633310D0A23203134352E303030302020202020203637340D0A23203135302E303030302020202020203634390D
[2018-06-21 15:46:09 416] UART Recv: @3[
# 110.0000      636
# 115.0000      636
# 120.0000      625
# 125.0000      676
# 130.0000      634
# 135.0000      613
# 140.0000      631
# 145.0000      674
# 150.0000      649
]
0A23203135352E303030302020202020203637350D0A23203136302E303030302020202020203632350D0A23203136352E303030302020202020203637390D
[2018-06-21 15:46:12 790] UART Recv: @3[
# 155.0000      675
# 160.0000      625
# 165.0000      679
]
0A23203137302E303030302020202020203636330D0A23203137352E303030302020202020203631320D0A23203138302E303030302020202020203635330D
[2018-06-21 15:46:15 493] UART Recv: @3[
# 170.0000      663
# 175.0000      612
# 180.0000      653
]

[2018-06-21 15:46:15 493] [Texture] analyzecount=0recvcount=0
0A23203138352E303030302020202020203635360D0A23203139302E303030302020202020203539390D0A23203139352E303030302020202020203635310D0A23203230302E303030302020202020203631330D0A23203230352E303030302020202020203633390D
[2018-06-21 15:46:20 695] UART Recv: @3[
# 185.0000      656
# 190.0000      599
# 195.0000      651
# 200.0000      613
# 205.0000      639
]
0A23203231302E303030302020202020203634340D0A23203231352E303030302020202020203639350D0A23203232302E303030302020202020203635300D0A23203232352E303030302020202020203539380D0A23203233302E303030302020202020203637320D0A23203233352E303030302020202020203631330D0A23203234302E303030302020202020203637310D0A23203234352E303030302020202020203634350D0A23203235302E303030302020202020203639300D0A23203235352E303030302020202020203630350D0A23203236302E303030302020202020203636350D0A23203236352E303030302020202020203631350D0A23203237302E303030302020202020203634390D0A23203237352E303030302020202020203632390D0A23203238302E303030302020202020203631360D0A23203238352E303030302020202020203631390D0A23203239302E303030302020202020203634300D0A23203239352E303030302020202020203635340D0A23203330302E303030302020202020203633380D0A23203330352E303030302020202020203636310D0A23203331302E303030302020202020203632380D0A23203331352E303030302020202020203634350D0A23203332302E303030302020202020203637320D0A23203332352E303030302020202020203635310D0A23203333302E303030302020202020203638360D0A23203333352E303030302020202020203634340D0A23203334302E303030302020202020203634330D0A23203334352E303030302020202020203632330D0A23203335302E303030302020202020203636320D0A23203335352E303030302020202020203633320D0A46697665422D4F4B0D0A433D
[2018-06-21 15:46:54 020] UART Recv: @3[
# 210.0000      644
# 215.0000      695
# 220.0000      650
# 225.0000      598
# 230.0000      672
# 235.0000      613
# 240.0000      671
# 245.0000      645
# 250.0000      690
# 255.0000      605
# 260.0000      665
# 265.0000      615
# 270.0000      649
# 275.0000      629
# 280.0000      616
# 285.0000      619
# 290.0000      640
# 295.0000      654
# 300.0000      638
# 305.0000      661
# 310.0000      628
# 315.0000      645
# 320.0000      672
# 325.0000      651
# 330.0000      686
# 335.0000      644
# 340.0000      643
# 345.0000      623
# 350.0000      662
# 355.0000      632
FiveB-OK
C=]

[2018-06-21 15:46:55 519] [Texture] analyzecount=0recvcount=0

[2018-06-21 15:46:58 289] [Texture] analyzecount=0recvcount=0

[2018-06-21 15:47:00 114] [Texture] analyzecount=0recvcount=0

[2018-06-21 15:47:01 145] [Texture] analyzecount=0recvcount=0

[2018-06-21 15:47:01 739] [Texture] analyzecount=0recvcount=0

[2018-06-21 15:47:04 410] [Texture] analyzecount=0recvcount=0

[2018-06-21 15:47:04 410] [Texture] analyzecount=0recvcount=0

[2018-06-21 15:47:04 410] [Texture] analyzecount=0recvcount=0

[2018-06-21 15:47:04 410] [Texture] analyzecount=0recvcount=0

[2018-06-21 15:47:04 410] [Texture] analyzecount=0recvcount=0

[2018-06-21 15:47:04 410] [Texture] analyzecount=0recvcount=0

[2018-06-21 15:47:04 410] [Texture] analyzecount=0recvcount=0
[2018-06-21 15:55:30 856]Log Start******************************************************

[2018-06-21 15:55:33 933] [UserLogin] login succeed!user=administrator,pwd=123456

[2018-06-21 15:55:34 011] [DeviceInit] Init faild, Uart Port not open

[2018-06-21 15:55:35 745] [DeviceInit] Init Skip
[2018-06-21 15:55:46 234]Log Start******************************************************

[2018-06-21 15:55:49 842] [UserLogin] login succeed!user=administrator,pwd=123456

[2018-06-21 15:55:49 905] [DeviceInit] Init Start
2F0D
[2018-06-21 15:55:51 623] UART Send: [/
]
0D0A433D
[2018-06-21 15:55:51 764] UART Recv: @1[
C=]
5246460D
[2018-06-21 15:55:52 639] UART Send: [RFF
]
5246460D0A2B2B3130310D0A433D
[2018-06-21 15:55:52 779] UART Recv: @1[RFF
++101
C=]
524B4D0D
[2018-06-21 15:55:53 436] UART Send: [RKM
]
524B4D0D30302E30300D200D30302E30300D0A433D
[2018-06-21 15:55:53 576] UART Recv: @1[RKM
00.00

00.00
C=]

[2018-06-21 15:55:55 842] [DeviceInit] Init Skip

[2018-06-21 15:55:57 122] [Parent] Menu Texture

[2018-06-21 15:56:00 679] [Texture] Measure Start
2F0D
[2018-06-21 15:56:02 186] UART Send: [/
]
0D0A433D
[2018-06-21 15:56:02 257] UART Recv: @3[
C=]
53414E3134350D
[2018-06-21 15:56:03 060] UART Send: [SAN145
]
53414E3134350D0A433D
[2018-06-21 15:56:03 200] UART Recv: @3[SAN145
C=]
534B4D32352033300D
[2018-06-21 15:56:04 278] UART Send: [SKM25 30
]
534B4D32352033300D
[2018-06-21 15:56:04 419] UART Recv: @3[SKM25 30
]
0A433D
[2018-06-21 15:56:18 208] UART Recv: @3[
C=]
524B4D0D
[2018-06-21 15:56:19 809] UART Send: [RKM
]

[2018-06-21 15:56:19 809] [Parent] closing
524B4D0D
[2018-06-21 15:56:19 903] UART Recv: @3[RKM
]
0D200D0D0A433D
[2018-06-21 15:56:21 215] UART Recv: @3[

C=]

[2018-06-21 15:56:21 215] [Parent] closing
[2018-06-21 15:56:56 867]Log Start******************************************************

[2018-06-21 15:56:57 851] [UserLogin] login succeed!user=administrator,pwd=123456

[2018-06-21 15:56:57 945] [DeviceInit] Init Start
2F0D
[2018-06-21 15:56:59 679] UART Send: [/
]
0D0A433D
[2018-06-21 15:56:59 835] UART Recv: @1[
C=]
5246460D
[2018-06-21 15:57:00 647] UART Send: [RFF
]
5246460D0A2B2B3130310D0A433D
[2018-06-21 15:57:00 782] UART Recv: @1[RFF
++101
C=]
524B4D0D
[2018-06-21 15:57:01 440] UART Send: [RKM
]
524B4D0D32342E39330D200D33302E30310D0A433D
[2018-06-21 15:57:01 580] UART Recv: @1[RKM
24.93

30.01
C=]

[2018-06-21 15:57:03 736] [DeviceInit] Init Skip

[2018-06-21 15:57:05 001] [Parent] Menu Texture

[2018-06-21 15:57:06 876] [Texture] Measure Start
2F0D
[2018-06-21 15:57:08 844] UART Send: [/
]
0D0A433D
[2018-06-21 15:57:08 931] UART Recv: @3[
C=]
53414E3134350D
[2018-06-21 15:57:09 806] UART Send: [SAN145
]
53414E3134350D0A433D
[2018-06-21 15:57:09 946] UART Recv: @3[SAN145
C=]
534B4D32352033300D
[2018-06-21 15:57:11 087] UART Send: [SKM25 30
]
534B4D32352033300D
[2018-06-21 15:57:11 227] UART Recv: @3[SKM25 30
]
0A433D
[2018-06-21 15:57:14 461] UART Recv: @3[
C=]
524B4D0D
[2018-06-21 15:57:15 735] UART Send: [RKM
]

[2018-06-21 15:57:15 735] [Parent] closing
524B4D0D32342E39350D200D33302E30320D0A433D
[2018-06-21 15:57:15 829] UART Recv: @3[RKM
24.95

30.02
C=]
494E54310D
[2018-06-21 15:57:17 141] UART Send: [INT1
]

[2018-06-21 15:57:17 141] [Parent] closing
494E54310D0A494E54310D0A494E54310D0A433D
[2018-06-21 15:57:17 282] UART Recv: @3[INT1
INT1
INT1
C=]
535045350D
[2018-06-21 15:57:18 719] UART Send: [SPE5
]
535045350D0A535045350D0A535045350D0A433D
[2018-06-21 15:57:18 859] UART Recv: @3[SPE5
SPE5
SPE5
C=]
53484F0D
[2018-06-21 15:57:20 453] UART Send: [SHO
]
53484F0D0A433D
[2018-06-21 15:57:20 609] UART Recv: @3[SHO
C=]
535441300D
[2018-06-21 15:57:23 143] UART Send: [STA0
]
535441300D0A433D202020302E303030300D0A433D
[2018-06-21 15:57:23 284] UART Recv: @3[STA0
C=   0.0000
C=]
535442300D
[2018-06-21 15:57:24 377] UART Send: [STB0
]
535442300D
[2018-06-21 15:57:24 534] UART Recv: @3[STB0
]
0A433D202020302E303030300D0A433D
[2018-06-21 15:57:54 418] UART Recv: @3[
C=   0.0000
C=]
4353423336300D
[2018-06-21 15:58:09 378] UART Send: [CSB360
]

[2018-06-21 15:58:09 378] [Texture] totalcount=72
4353423336300D
[2018-06-21 15:58:09 487] UART Recv: @3[CSB360
]
0A23202020302E303030302020202020203635300D
[2018-06-21 15:58:10 518] UART Recv: @3[
#   0.0000      650
]
0A23202020352E303030302020202020203632370D0A23202031302E303030302020202020203632350D0A23202031352E303030302020202020203632390D0A23202032302E303030302020202020203637320D0A23202032352E303030302020202020203633350D0A23202033302E303030302020202020203630350D0A23202033352E303030302020202020203631380D0A23202034302E303030302020202020203630370D0A23202034352E303030302020202020203631330D0A23202035302E303030302020202020203631360D0A23202035352E303030302020202020203632360D0A23202036302E303030302020202020203539350D0A23202036352E303030302020202020203637390D0A23202037302E303030302020202020203632320D0A23202037352E303030302020202020203630300D0A23202038302E303030302020202020203632380D0A23202038352E303030302020202020203632300D
[2018-06-21 15:58:27 905] UART Recv: @3[
#   5.0000      627
#  10.0000      625
#  15.0000      629
#  20.0000      672
#  25.0000      635
#  30.0000      605
#  35.0000      618
#  40.0000      607
#  45.0000      613
#  50.0000      616
#  55.0000      626
#  60.0000      595
#  65.0000      679
#  70.0000      622
#  75.0000      600
#  80.0000      628
#  85.0000      620
]
0A23202039302E303030302020202020203633330D0A23202039352E303030302020202020203633380D0A23203130302E303030302020202020203631360D0A23203130352E303030302020202020203633360D0A23203131302E303030302020202020203539340D0A23203131352E303030302020202020203630320D0A23203132302E303030302020202020203538380D0A23203132352E303030302020202020203630310D
[2018-06-21 15:58:35 948] UART Recv: @3[
#  90.0000      633
#  95.0000      638
# 100.0000      616
# 105.0000      636
# 110.0000      594
# 115.0000      602
# 120.0000      588
# 125.0000      601
]
0A23203133302E303030302020202020203634360D
[2018-06-21 15:58:37 077] UART Recv: @3[
# 130.0000      646
]
0A23203133352E303030302020202020203634330D0A23203134302E303030302020202020203637390D0A23203134352E303030302020202020203630300D0A23203135302E303030302020202020203633300D0A23203135352E303030302020202020203637320D0A23203136302E303030302020202020203636330D0A23203136352E303030302020202020203730310D0A23203137302E303030302020202020203632330D0A23203137352E303030302020202020203633390D0A23203138302E303030302020202020203633320D
[2018-06-21 15:58:47 234] UART Recv: @3[
# 135.0000      643
# 140.0000      679
# 145.0000      600
# 150.0000      630
# 155.0000      672
# 160.0000      663
# 165.0000      701
# 170.0000      623
# 175.0000      639
# 180.0000      632
]
[2018-06-21 16:17:11 393]Log Start******************************************************

[2018-06-21 16:17:13 705] [UserLogin] login succeed!user=administrator,pwd=123456

[2018-06-21 16:17:13 799] [DeviceInit] Init Start
2F0D
[2018-06-21 16:17:15 974] UART Send: [/
]
0D0A433D
[2018-06-21 16:17:16 112] UART Recv: @1[
C=]
5246460D
[2018-06-21 16:17:17 294] UART Send: [RFF
]
5246460D0A2B2B3130310D0A433D
[2018-06-21 16:17:17 426] UART Recv: @1[RFF
++101
C=]
524B4D0D
[2018-06-21 16:17:18 082] UART Send: [RKM
]
524B4D0D32342E39350D200D33302E30320D0A433D
[2018-06-21 16:17:18 223] UART Recv: @1[RKM
24.95

30.02
C=]

[2018-06-21 16:17:20 316] [DeviceInit] Init Skip

[2018-06-21 16:17:21 876] [Parent] Menu Texture

[2018-06-21 16:17:31 655] [Texture] Measure Start
2F0D
[2018-06-21 16:17:35 753] UART Send: [/
]
0D0A433D
[2018-06-21 16:17:35 826] UART Recv: @3[
C=]
53414E3134350D
[2018-06-21 16:17:36 747] UART Send: [SAN145
]
53414E3134350D0A433D
[2018-06-21 16:17:36 888] UART Recv: @3[SAN145
C=]
534B4D32352033300D
[2018-06-21 16:17:37 778] UART Send: [SKM25 30
]
534B4D32352033300D
[2018-06-21 16:17:37 919] UART Recv: @3[SKM25 30
]
0A433D
[2018-06-21 16:17:41 153] UART Recv: @3[
C=]
524B4D0D
[2018-06-21 16:17:42 174] UART Send: [RKM
]

[2018-06-21 16:17:42 174] [Parent] closing
524B4D0D32342E39350D200D33302E30320D0A433D
[2018-06-21 16:17:42 257] UART Recv: @3[RKM
24.95

30.02
C=]
494E54310D
[2018-06-21 16:17:43 225] UART Send: [INT1
]

[2018-06-21 16:17:43 225] [Parent] closing
494E54310D0A494E54310D0A494E54310D0A433D
[2018-06-21 16:17:43 366] UART Recv: @3[INT1
INT1
INT1
C=]
535045350D
[2018-06-21 16:17:44 256] UART Send: [SPE5
]
535045350D0A535045350D0A535045350D0A433D
[2018-06-21 16:17:44 397] UART Recv: @3[SPE5
SPE5
SPE5
C=]
53484F0D
[2018-06-21 16:17:45 493] UART Send: [SHO
]
53484F0D0A433D
[2018-06-21 16:17:45 649] UART Recv: @3[SHO
C=]
535441300D
[2018-06-21 16:17:46 852] UART Send: [STA0
]
535441300D0A433D202020302E303030300D0A433D
[2018-06-21 16:17:47 008] UART Recv: @3[STA0
C=   0.0000
C=]
535442300D
[2018-06-21 16:17:48 024] UART Send: [STB0
]
535442300D
[2018-06-21 16:17:48 164] UART Recv: @3[STB0
]
0A433D202020302E303030300D0A433D
[2018-06-21 16:18:18 081] UART Recv: @3[
C=   0.0000
C=]
4353423336300D
[2018-06-21 16:18:21 642] UART Send: [CSB360
]

[2018-06-21 16:18:21 642] [Texture] totalcount=72
4353423336300D
[2018-06-21 16:18:21 752] UART Recv: @3[CSB360
]
0A23202020302E303030302020202020203632370D
[2018-06-21 16:18:22 767] UART Recv: @3[
#   0.0000      627
]
[2018-06-21 16:20:03 773]Log Start******************************************************

[2018-06-21 16:20:04 882] [UserLogin] login succeed!user=administrator,pwd=123456

[2018-06-21 16:20:04 960] [DeviceInit] Init Start
2F0D
[2018-06-21 16:20:06 929] UART Send: [/
]
0D0A433D
[2018-06-21 16:20:07 069] UART Recv: @1[
C=]
5246460D
[2018-06-21 16:20:08 225] UART Send: [RFF
]
5246460D0A2B2B3130310D0A433D
[2018-06-21 16:20:08 366] UART Recv: @1[RFF
++101
C=]
524B4D0D
[2018-06-21 16:20:09 101] UART Send: [RKM
]
524B4D0D32342E39350D200D33302E30320D0A433D
[2018-06-21 16:20:09 242] UART Recv: @1[RKM
24.95

30.02
C=]

[2018-06-21 16:20:11 101] [DeviceInit] Init Skip

[2018-06-21 16:20:12 124] [Parent] Menu Measure

[2018-06-21 16:20:12 249] [Measure] check 5 Axis=Unchecked

[2018-06-21 16:20:13 921] [Parent] Menu Texture

[2018-06-21 16:20:24 731] [Texture] Measure Start
2F0D
[2018-06-21 16:20:27 029] UART Send: [/
]
0D0A433D
[2018-06-21 16:20:27 115] UART Recv: @3[
C=]
53414E3134350D
[2018-06-21 16:20:29 458] UART Send: [SAN145
]
53414E3134350D0A433D
[2018-06-21 16:20:29 599] UART Recv: @3[SAN145
C=]
534B4D32352033300D
[2018-06-21 16:20:30 638] UART Send: [SKM25 30
]
534B4D32352033300D
[2018-06-21 16:20:30 779] UART Recv: @3[SKM25 30
]
0A433D
[2018-06-21 16:20:34 013] UART Recv: @3[
C=]
524B4D0D
[2018-06-21 16:20:35 887] UART Send: [RKM
]

[2018-06-21 16:20:35 887] [Parent] closing
524B4D0D32342E39350D200D33302E30320D0A433D
[2018-06-21 16:20:35 996] UART Recv: @3[RKM
24.95

30.02
C=]
494E54310D
[2018-06-21 16:20:36 777] UART Send: [INT1
]

[2018-06-21 16:20:36 777] [Parent] closing
494E54310D0A494E54310D0A494E54310D0A433D
[2018-06-21 16:20:36 934] UART Recv: @3[INT1
INT1
INT1
C=]
535045350D
[2018-06-21 16:20:37 856] UART Send: [SPE5
]
535045350D0A535045350D0A535045350D0A433D
[2018-06-21 16:20:37 996] UART Recv: @3[SPE5
SPE5
SPE5
C=]
53484F0D
[2018-06-21 16:20:39 168] UART Send: [SHO
]
53484F0D0A433D
[2018-06-21 16:20:39 324] UART Recv: @3[SHO
C=]
535441300D
[2018-06-21 16:20:40 230] UART Send: [STA0
]
535441300D0A433D202020302E303030300D0A433D
[2018-06-21 16:20:40 371] UART Recv: @3[STA0
C=   0.0000
C=]
535442300D
[2018-06-21 16:20:41 136] UART Send: [STB0
]
535442300D
[2018-06-21 16:20:41 277] UART Recv: @3[STB0
]
0A433D202020302E303030300D0A433D
[2018-06-21 16:21:11 187] UART Recv: @3[
C=   0.0000
C=]
4353423336300D
[2018-06-21 16:21:17 187] UART Send: [CSB360
]

[2018-06-21 16:21:17 187] [Texture] totalcount=72
4353423336300D
[2018-06-21 16:21:17 328] UART Recv: @3[CSB360
]
[2018-06-21 16:22:40 400]Log Start******************************************************

[2018-06-21 16:22:42 098] [UserLogin] login succeed!user=administrator,pwd=123456

[2018-06-21 16:22:42 176] [DeviceInit] Init Start
2F0D
[2018-06-21 16:22:47 545] UART Send: [/
]
0A433D0D0A433D
[2018-06-21 16:22:47 698] UART Recv: @1[
C=
C=]
5246460D
[2018-06-21 16:22:49 088] UART Send: [RFF
]
5246460D0A2B2B3130310D0A433D
[2018-06-21 16:22:49 245] UART Recv: @1[RFF
++101
C=]
524B4D0D
[2018-06-21 16:22:50 494] UART Send: [RKM
]
524B4D0D32342E39350D200D33302E30320D0A433D
[2018-06-21 16:22:50 619] UART Recv: @1[RKM
24.95

30.02
C=]

[2018-06-21 16:22:55 635] [DeviceInit] Init Skip

[2018-06-21 16:22:57 594] [Parent] Menu Texture

[2018-06-21 16:23:09 004] [Texture] Measure Start
2F0D
[2018-06-21 16:23:10 878] UART Send: [/
]
0D0A433D
[2018-06-21 16:23:10 988] UART Recv: @3[
C=]
53414E3134350D
[2018-06-21 16:23:15 997] UART Send: [SAN145
]
53414E3134350D0A433D
[2018-06-21 16:23:16 138] UART Recv: @3[SAN145
C=]
534B4D32352033300D
[2018-06-21 16:23:17 400] UART Send: [SKM25 30
]
534B4D32352033300D
[2018-06-21 16:23:17 541] UART Recv: @3[SKM25 30
]
0A433D
[2018-06-21 16:23:20 774] UART Recv: @3[
C=]
524B4D0D
[2018-06-21 16:23:22 168] UART Send: [RKM
]

[2018-06-21 16:23:22 168] [Parent] closing
524B4D0D32342E39350D200D33302E30320D0A433D
[2018-06-21 16:23:22 261] UART Recv: @3[RKM
24.95

30.02
C=]
494E54310D
[2018-06-21 16:23:23 902] UART Send: [INT1
]

[2018-06-21 16:23:23 902] [Parent] closing
494E54310D0A494E54310D0A494E54310D0A433D
[2018-06-21 16:23:24 042] UART Recv: @3[INT1
INT1
INT1
C=]
535045350D
[2018-06-21 16:23:29 840] UART Send: [SPE5
]
535045350D0A535045350D0A535045350D0A433D
[2018-06-21 16:23:29 992] UART Recv: @3[SPE5
SPE5
SPE5
C=]
53484F0D
[2018-06-21 16:23:31 039] UART Send: [SHO
]
53484F0D0A433D
[2018-06-21 16:23:31 195] UART Recv: @3[SHO
C=]
535441300D
[2018-06-21 16:23:32 445] UART Send: [STA0
]
535441300D0A433D202020302E303030300D0A433D
[2018-06-21 16:23:32 585] UART Recv: @3[STA0
C=   0.0000
C=]
535442300D
[2018-06-21 16:23:33 320] UART Send: [STB0
]
535442300D0A433D202020302E303030300D0A433D
[2018-06-21 16:23:33 460] UART Recv: @3[STB0
C=   0.0000
C=]
4353423336300D
[2018-06-21 16:23:36 131] UART Send: [CSB360
]

[2018-06-21 16:23:36 131] [Texture] totalcount=72
4353423336300D
[2018-06-21 16:23:36 288] UART Recv: @3[CSB360
]
0A23202020302E303030302020202020203633390D
[2018-06-21 16:23:37 319] UART Recv: @3[
#   0.0000      639
]
0A23202020352E303030302020202020203636310D0A23202031302E303030302020202020203633340D0A23202031352E303030302020202020203637380D0A23202032302E303030302020202020203638320D
[2018-06-21 16:23:42 170] UART Recv: @3[
#   5.0000      661
#  10.0000      634
#  15.0000      678
#  20.0000      682
]
0A23202032352E303030302020202020203635320D0A23202033302E303030302020202020203633340D0A23202033352E303030302020202020203635360D0A23202034302E303030302020202020203632320D0A23202034352E303030302020202020203631360D0A23202035302E303030302020202020203634330D0A23202035352E303030302020202020203635320D0A23202036302E303030302020202020203634390D0A23202036352E303030302020202020203636310D0A23202037302E303030302020202020203636330D0A23202037352E303030302020202020203633350D
[2018-06-21 16:23:52 246] UART Recv: @3[
#  25.0000      652
#  30.0000      634
#  35.0000      656
#  40.0000      622
#  45.0000      616
#  50.0000      643
#  55.0000      652
#  60.0000      649
#  65.0000      661
#  70.0000      663
#  75.0000      635
]
0A23202038302E303030302020202020203633310D0A23202038352E303030302020202020203635310D0A23202039302E303030302020202020203632370D0A23202039352E303030302020202020203634300D0A23203130302E303030302020202020203636320D
[2018-06-21 16:23:57 610] UART Recv: @3[
#  80.0000      631
#  85.0000      651
#  90.0000      627
#  95.0000      640
# 100.0000      662
]
0A23203130352E303030302020202020203635320D0A23203131302E303030302020202020203635310D0A23203131352E303030302020202020203635330D
[2018-06-21 16:24:00 219] UART Recv: @3[
# 105.0000      652
# 110.0000      651
# 115.0000      653
]
0A23203132302E303030302020202020203634370D0A23203132352E303030302020202020203635390D0A23203133302E303030302020202020203632350D
[2018-06-21 16:24:04 093] UART Recv: @3[
# 120.0000      647
# 125.0000      659
# 130.0000      625
]
0A23203133352E303030302020202020203630320D0A23203134302E303030302020202020203635330D
[2018-06-21 16:24:06 077] UART Recv: @3[
# 135.0000      602
# 140.0000      653
]
0A23203134352E303030302020202020203634390D0A23203135302E303030302020202020203637350D0A23203135352E303030302020202020203636390D0A23203136302E303030302020202020203635390D0A23203136352E303030302020202020203637350D0A23203137302E303030302020202020203636370D0A23203137352E303030302020202020203632360D0A23203138302E303030302020202020203633390D0A23203138352E303030302020202020203635380D0A23203139302E303030302020202020203635380D0A23203139352E303030302020202020203636320D0A23203230302E303030302020202020203632300D0A23203230352E303030302020202020203635380D0A23203231302E303030302020202020203633310D0A23203231352E303030302020202020203634380D0A23203232302E303030302020202020203636340D0A23203232352E303030302020202020203633320D0A23203233302E303030302020202020203635350D0A23203233352E303030302020202020203632390D
[2018-06-21 16:24:24 786] UART Recv: @3[
# 145.0000      649
# 150.0000      675
# 155.0000      669
# 160.0000      659
# 165.0000      675
# 170.0000      667
# 175.0000      626
# 180.0000      639
# 185.0000      658
# 190.0000      658
# 195.0000      662
# 200.0000      620
# 205.0000      658
# 210.0000      631
# 215.0000      648
# 220.0000      664
# 225.0000      632
# 230.0000      655
# 235.0000      629
]
0A23203234302E303030302020202020203639340D0A23203234352E303030302020202020203631380D
[2018-06-21 16:24:26 613] UART Recv: @3[
# 240.0000      694
# 245.0000      618
]
0A23203235302E303030302020202020203633390D
[2018-06-21 16:24:27 676] UART Recv: @3[
# 250.0000      639
]
0A23203235352E303030302020202020203634330D0A23203236302E303030302020202020203637340D
[2018-06-21 16:24:29 295] UART Recv: @3[
# 255.0000      643
# 260.0000      674
]
0A23203236352E303030302020202020203636380D
[2018-06-21 16:24:31 061] UART Recv: @3[
# 265.0000      668
]
0A23203237302E303030302020202020203633300D
[2018-06-21 16:24:31 967] UART Recv: @3[
# 270.0000      630
]
0A23203237352E303030302020202020203633340D0A23203238302E303030302020202020203639370D
[2018-06-21 16:24:34 076] UART Recv: @3[
# 275.0000      634
# 280.0000      697
]
[2018-06-21 16:25:10 181]Log Start******************************************************

[2018-06-21 16:25:11 175] [UserLogin] login succeed!user=administrator,pwd=123456

[2018-06-21 16:25:11 266] [DeviceInit] Init Start
2F0D
[2018-06-21 16:25:13 765] UART Send: [/
]
0D0A433D
[2018-06-21 16:25:13 922] UART Recv: @1[
C=]
5246460D
[2018-06-21 16:25:14 953] UART Send: [RFF
]
5246460D0A2B2B3130310D0A433D
[2018-06-21 16:25:15 093] UART Recv: @1[RFF
++101
C=]
524B4D0D
[2018-06-21 16:25:15 765] UART Send: [RKM
]
524B4D0D32342E39350D200D33302E30320D0A433D
[2018-06-21 16:25:15 905] UART Recv: @1[RKM
24.95

30.02
C=]

[2018-06-21 16:25:17 749] [DeviceInit] Init Skip

[2018-06-21 16:25:18 936] [Parent] Menu Texture

[2018-06-21 16:25:27 059] [Texture] Measure Start
2F0D
[2018-06-21 16:25:29 090] UART Send: [/
]
0D0A433D
[2018-06-21 16:25:29 184] UART Recv: @3[
C=]
53414E3134350D
[2018-06-21 16:25:29 855] UART Send: [SAN145
]
53414E3134350D0A433D
[2018-06-21 16:25:29 996] UART Recv: @3[SAN145
C=]
534B4D32352033300D
[2018-06-21 16:25:30 824] UART Send: [SKM25 30
]
534B4D32352033300D
[2018-06-21 16:25:30 949] UART Recv: @3[SKM25 30
]
0A433D
[2018-06-21 16:25:34 183] UART Recv: @3[
C=]
524B4D0D
[2018-06-21 16:25:35 104] UART Send: [RKM
]

[2018-06-21 16:25:35 104] [Parent] closing
524B4D0D32342E39350D200D33302E30320D0A433D
[2018-06-21 16:25:35 214] UART Recv: @3[RKM
24.95

30.02
C=]
494E54310D
[2018-06-21 16:25:35 932] UART Send: [INT1
]

[2018-06-21 16:25:35 932] [Parent] closing
494E54310D0A494E54310D0A494E54310D0A433D
[2018-06-21 16:25:36 073] UART Recv: @3[INT1
INT1
INT1
C=]
535045350D
[2018-06-21 16:25:37 057] UART Send: [SPE5
]
535045350D0A535045350D0A535045350D0A433D
[2018-06-21 16:25:37 198] UART Recv: @3[SPE5
SPE5
SPE5
C=]
53484F0D
[2018-06-21 16:25:37 885] UART Send: [SHO
]
53484F0D0A433D
[2018-06-21 16:25:38 026] UART Recv: @3[SHO
C=]
535441300D
[2018-06-21 16:25:38 650] UART Send: [STA0
]
535441300D0A433D202020302E303030300D0A433D
[2018-06-21 16:25:38 791] UART Recv: @3[STA0
C=   0.0000
C=]
535442300D
[2018-06-21 16:25:39 463] UART Send: [STB0
]
535442300D
[2018-06-21 16:25:39 604] UART Recv: @3[STB0
]
0A433D202020302E303030300D0A433D
[2018-06-21 16:26:09 513] UART Recv: @3[
C=   0.0000
C=]
4353423336300D
[2018-06-21 16:26:16 355] UART Send: [CSB360
]

[2018-06-21 16:26:16 355] [Texture] totalcount=72
4353423336300D
[2018-06-21 16:26:16 464] UART Recv: @3[CSB360
]
0A23202020302E303030302020202020203634330D
[2018-06-21 16:26:17 480] UART Recv: @3[
#   0.0000      643
]
0A23202020352E303030302020202020203635320D0A23202031302E303030302020202020203637370D0A23202031352E303030302020202020203632360D0A23202032302E303030302020202020203637360D0A23202032352E303030302020202020203636300D0A23202033302E303030302020202020203633370D0A23202033352E303030302020202020203636340D0A23202034302E303030302020202020203633380D0A23202034352E303030302020202020203633390D
[2018-06-21 16:26:26 784] UART Recv: @3[
#   5.0000      652
#  10.0000      677
#  15.0000      626
#  20.0000      676
#  25.0000      660
#  30.0000      637
#  35.0000      664
#  40.0000      638
#  45.0000      639
]
0A23202035302E303030302020202020203632310D0A23202035352E303030302020202020203634340D0A23202036302E303030302020202020203636320D
[2018-06-21 16:26:29 408] UART Recv: @3[
#  50.0000      621
#  55.0000      644
#  60.0000      662
]
0A23202036352E303030302020202020203634320D
[2018-06-21 16:26:30 674] UART Recv: @3[
#  65.0000      642
]
0A23202037302E303030302020202020203636300D0A23202037352E303030302020202020203634300D0A23202038302E303030302020202020203633370D
[2018-06-21 16:26:33 760] UART Recv: @3[
#  70.0000      660
#  75.0000      640
#  80.0000      637
]
0A23202038352E303030302020202020203634310D0A23202039302E303030302020202020203638370D
[2018-06-21 16:26:35 797] UART Recv: @3[
#  85.0000      641
#  90.0000      687
]
0A23202039352E303030302020202020203630340D0A23203130302E303030302020202020203730380D0A23203130352E303030302020202020203634350D0A23203131302E303030302020202020203539390D0A23203131352E303030302020202020203634300D0A23203132302E303030302020202020203537340D0A23203132352E303030302020202020203636370D0A23203133302E303030302020202020203634380D
[2018-06-21 16:26:44 225] UART Recv: @3[
#  95.0000      604
# 100.0000      708
# 105.0000      645
# 110.0000      599
# 115.0000      640
# 120.0000      574
# 125.0000      667
# 130.0000      648
]
0A23203133352E303030302020202020203636360D
[2018-06-21 16:26:44 872] UART Recv: @3[
# 135.0000      666
]
0A23203134302E303030302020202020203635370D
[2018-06-21 16:26:45 778] UART Recv: @3[
# 140.0000      657
]
0A23203134352E303030302020202020203633340D
[2018-06-21 16:26:46 653] UART Recv: @3[
# 145.0000      634
]
0A23203135302E303030302020202020203639370D
[2018-06-21 16:26:47 762] UART Recv: @3[
# 150.0000      697
]
0A23203135352E303030302020202020203635330D0A23203136302E303030302020202020203635320D
[2018-06-21 16:26:49 574] UART Recv: @3[
# 155.0000      653
# 160.0000      652
]
0A23203136352E303030302020202020203634370D0A23203137302E303030302020202020203633330D
[2018-06-21 16:26:51 702] UART Recv: @3[
# 165.0000      647
# 170.0000      633
]
0A23203137352E303030302020202020203636330D0A23203138302E303030302020202020203633300D0A23203138352E303030302020202020203633330D0A23203139302E303030302020202020203633320D0A23203139352E303030302020202020203630310D0A23203230302E303030302020202020203637320D0A23203230352E303030302020202020203637340D0A23203231302E303030302020202020203633390D0A23203231352E303030302020202020203635320D0A23203232302E303030302020202020203636330D0A23203232352E303030302020202020203632350D0A23203233302E303030302020202020203634320D0A23203233352E303030302020202020203636310D0A23203234302E303030302020202020203633340D0A23203234352E303030302020202020203635350D0A23203235302E303030302020202020203637320D0A23203235352E303030302020202020203539340D0A23203236302E303030302020202020203637370D
[2018-06-21 16:27:09 714] UART Recv: @3[
# 175.0000      663
# 180.0000      630
# 185.0000      633
# 190.0000      632
# 195.0000      601
# 200.0000      672
# 205.0000      674
# 210.0000      639
# 215.0000      652
# 220.0000      663
# 225.0000      625
# 230.0000      642
# 235.0000      661
# 240.0000      634
# 245.0000      655
# 250.0000      672
# 255.0000      594
# 260.0000      677
]

[2018-06-21 16:27:11 214] [Texture] analyzecount=1recvcount=1
0A23203236352E303030302020202020203631360D0A23203237302E303030302020202020203636360D
[2018-06-21 16:27:12 026] UART Recv: @3[
# 265.0000      616
# 270.0000      666
]
0A23203237352E303030302020202020203632380D
[2018-06-21 16:27:13 182] UART Recv: @3[
# 275.0000      628
]
0A23203238302E303030302020202020203635300D0A23203238352E303030302020202020203636320D0A23203239302E303030302020202020203730360D0A23203239352E303030302020202020203631360D0A23203330302E303030302020202020203636340D0A23203330352E303030302020202020203638360D
[2018-06-21 16:27:18 517] UART Recv: @3[
# 280.0000      650
# 285.0000      662
# 290.0000      706
# 295.0000      616
# 300.0000      664
# 305.0000      686
]

[2018-06-21 16:27:18 517] [Texture] analyzecount=9recvcount=10

[2018-06-21 16:27:18 517] [Texture] analyzecount=3recvcount=13

[2018-06-21 16:27:18 517] [Texture] analyzecount=1recvcount=14

[2018-06-21 16:27:18 517] [Texture] analyzecount=3recvcount=17

[2018-06-21 16:27:18 517] [Texture] analyzecount=2recvcount=19

[2018-06-21 16:27:18 517] [Texture] analyzecount=8recvcount=27

[2018-06-21 16:27:18 517] [Texture] analyzecount=1recvcount=28

[2018-06-21 16:27:18 517] [Texture] analyzecount=1recvcount=29

[2018-06-21 16:27:18 517] [Texture] analyzecount=1recvcount=30

[2018-06-21 16:27:18 517] [Texture] analyzecount=1recvcount=31

[2018-06-21 16:27:18 517] [Texture] analyzecount=2recvcount=33

[2018-06-21 16:27:18 517] [Texture] analyzecount=2recvcount=35

[...]

[2018-06-21 19:58:44 428] Binding[10 25 656]
0A23202033302E303030302020202020203635310D
[2018-06-21 19:58:45 418] UART Recv: @3[
#  30.0000      651
]

[2018-06-21 19:58:45 418] [Texture] analyzecount=1totalrecvcount=7

[2018-06-21 19:58:45 418] Chart RealTime update[start @6rowsCount=7]

[2018-06-21 19:58:45 418] Binding[10 30 651]
0A23202033352E303030302020202020203636320D
[2018-06-21 19:58:46 424] UART Recv: @3[
#  35.0000      662
]

[2018-06-21 19:58:46 424] [Texture] analyzecount=1totalrecvcount=8

[2018-06-21 19:58:46 424] Chart RealTime update[start @7rowsCount=8]

[2018-06-21 19:58:46 424] Binding[10 35 662]
0A23202034302E303030302020202020203633370D
[2018-06-21 19:58:47 430] UART Recv: @3[
#  40.0000      637
]

[2018-06-21 19:58:47 430] [Texture] analyzecount=1totalrecvcount=9

[2018-06-21 19:58:47 430] Chart RealTime update[start @8rowsCount=9]

[2018-06-21 19:58:47 430] Binding[10 40 637]
0A23202034352E303030302020202020203637320D
[2018-06-21 19:58:48 420] UART Recv: @3[
#  45.0000      672
]

[2018-06-21 19:58:48 420] [Texture] analyzecount=1totalrecvcount=10

[2018-06-21 19:58:48 420] Chart RealTime update[start @9rowsCount=10]

[2018-06-21 19:58:48 420] Binding[10 45 672]
0A23202035302E303030302020202020203632310D
[2018-06-21 19:58:49 426] UART Recv: @3[
#  50.0000      621
]

[2018-06-21 19:58:49 426] [Texture] analyzecount=1totalrecvcount=11

[2018-06-21 19:58:49 426] Chart RealTime update[start @10rowsCount=11]

[2018-06-21 19:58:49 426] Binding[10 50 621]
0A23202035352E303030302020202020203634320D
[2018-06-21 19:58:50 432] UART Recv: @3[
#  55.0000      642
]

[2018-06-21 19:58:50 432] [Texture] analyzecount=1totalrecvcount=12

[2018-06-21 19:58:50 432] Chart RealTime update[start @11rowsCount=12]

[2018-06-21 19:58:50 432] Binding[10 55 642]
0A23202036302E303030302020202020203633370D
[2018-06-21 19:58:51 421] UART Recv: @3[
#  60.0000      637
]

[2018-06-21 19:58:51 421] [Texture] analyzecount=1totalrecvcount=13

[2018-06-21 19:58:51 421] Chart RealTime update[start @12rowsCount=13]

[2018-06-21 19:58:51 421] Binding[10 60 637]
0A23202036352E303030302020202020203634360D
[2018-06-21 19:58:52 428] UART Recv: @3[
#  65.0000      646
]

[2018-06-21 19:58:52 428] [Texture] analyzecount=1totalrecvcount=14

[2018-06-21 19:58:52 428] Chart RealTime update[start @13rowsCount=14]

[2018-06-21 19:58:52 428] Binding[10 65 646]
0A23202037302E303030302020202020203638300D
[2018-06-21 19:58:53 417] UART Recv: @3[
#  70.0000      680
]

[2018-06-21 19:58:53 417] [Texture] analyzecount=1totalrecvcount=15

[2018-06-21 19:58:53 417] Chart RealTime update[start @14rowsCount=15]

[2018-06-21 19:58:53 417] Binding[10 70 680]
0A23202037352E303030302020202020203634350D
[2018-06-21 19:58:54 424] UART Recv: @3[
#  75.0000      645
]

[2018-06-21 19:58:54 424] [Texture] analyzecount=1totalrecvcount=16

[2018-06-21 19:58:54 424] Chart RealTime update[start @15rowsCount=16]

[2018-06-21 19:58:54 424] Binding[10 75 645]
0A23202038302E303030302020202020203634390D
[2018-06-21 19:58:55 430] UART Recv: @3[
#  80.0000      649
]

[2018-06-21 19:58:55 430] [Texture] analyzecount=1totalrecvcount=17

[2018-06-21 19:58:55 430] Chart RealTime update[start @16rowsCount=17]

[2018-06-21 19:58:55 430] Binding[10 80 649]
0A23202038352E303030302020202020203638390D
[2018-06-21 19:58:56 420] UART Recv: @3[
#  85.0000      689
]

[2018-06-21 19:58:56 421] [Texture] analyzecount=1totalrecvcount=18

[2018-06-21 19:58:56 421] Chart RealTime update[start @17rowsCount=18]

[2018-06-21 19:58:56 421] Binding[10 85 689]
0A23202039302E303030302020202020203634360D
[2018-06-21 19:58:57 425] UART Recv: @3[
#  90.0000      646
]

[2018-06-21 19:58:57 425] [Texture] analyzecount=1totalrecvcount=19

[2018-06-21 19:58:57 425] Chart RealTime update[start @18rowsCount=19]

[2018-06-21 19:58:57 425] Binding[10 90 646]
0A23202039352E303030302020202020203636300D
[2018-06-21 19:58:58 431] UART Recv: @3[
#  95.0000      660
]

[2018-06-21 19:58:58 431] [Texture] analyzecount=1totalrecvcount=20

[2018-06-21 19:58:58 431] Chart RealTime update[start @19rowsCount=20]

[2018-06-21 19:58:58 431] Binding[10 95 660]
0A23203130302E303030302020202020203633300D
[2018-06-21 19:58:59 421] UART Recv: @3[
# 100.0000      630
]

[2018-06-21 19:58:59 421] [Texture] analyzecount=1totalrecvcount=21

[2018-06-21 19:58:59 421] Chart RealTime update[start @20rowsCount=21]

[2018-06-21 19:58:59 421] Binding[10 100 630]
0A23203130352E303030302020202020203638330D
[2018-06-21 19:59:00 427] UART Recv: @3[
# 105.0000      683
]

[2018-06-21 19:59:00 427] [Texture] analyzecount=1totalrecvcount=22

[2018-06-21 19:59:00 427] Chart RealTime update[start @21rowsCount=22]

[2018-06-21 19:59:00 427] Binding[10 105 683]
0A23203131302E303030302020202020203631370D
[2018-06-21 19:59:01 417] UART Recv: @3[
# 110.0000      617
]

[2018-06-21 19:59:01 417] [Texture] analyzecount=1totalrecvcount=23

[2018-06-21 19:59:01 417] Chart RealTime update[start @22rowsCount=23]

[2018-06-21 19:59:01 417] Binding[10 110 617]
0A23203131352E303030302020202020203632350D
[2018-06-21 19:59:02 423] UART Recv: @3[
# 115.0000      625
]

[2018-06-21 19:59:02 423] [Texture] analyzecount=1totalrecvcount=24

[2018-06-21 19:59:02 423] Chart RealTime update[start @23rowsCount=24]

[2018-06-21 19:59:02 423] Binding[10 115 625]
0A23203132302E303030302020202020203538370D
[2018-06-21 19:59:03 429] UART Recv: @3[
# 120.0000      587
]

[2018-06-21 19:59:03 429] [Texture] analyzecount=1totalrecvcount=25

[2018-06-21 19:59:03 429] Chart RealTime update[start @24rowsCount=25]

[2018-06-21 19:59:03 429] Binding[10 120 587]
0A23203132352E303030302020202020203539310D
[2018-06-21 19:59:04 420] UART Recv: @3[
# 125.0000      591
]

[2018-06-21 19:59:04 420] [Texture] analyzecount=1totalrecvcount=26

[2018-06-21 19:59:04 420] Chart RealTime update[start @25rowsCount=26]

[2018-06-21 19:59:04 420] Binding[10 125 591]
0A23203133302E303030302020202020203636380D
[2018-06-21 19:59:05 425] UART Recv: @3[
# 130.0000      668
]

[2018-06-21 19:59:05 425] [Texture] analyzecount=1totalrecvcount=27

[2018-06-21 19:59:05 425] Chart RealTime update[start @26rowsCount=27]

[2018-06-21 19:59:05 425] Binding[10 130 668]
0A23203133352E303030302020202020203631370D
[2018-06-21 19:59:06 431] UART Recv: @3[
# 135.0000      617
]

[2018-06-21 19:59:06 431] [Texture] analyzecount=1totalrecvcount=28

[2018-06-21 19:59:06 431] Chart RealTime update[start @27rowsCount=28]

[2018-06-21 19:59:06 431] Binding[10 135 617]
0A23203134302E303030302020202020203634330D
[2018-06-21 19:59:07 421] UART Recv: @3[
# 140.0000      643
]

[2018-06-21 19:59:07 421] [Texture] analyzecount=1totalrecvcount=29

[2018-06-21 19:59:07 421] Chart RealTime update[start @28rowsCount=29]

[2018-06-21 19:59:07 421] Binding[10 140 643]
0A23203134352E303030302020202020203633380D
[2018-06-21 19:59:08 427] UART Recv: @3[
# 145.0000      638
]

[2018-06-21 19:59:08 427] [Texture] analyzecount=1totalrecvcount=30

[2018-06-21 19:59:08 427] Chart RealTime update[start @29rowsCount=30]

[2018-06-21 19:59:08 427] Binding[10 145 638]
0A23203135302E303030302020202020203632330D
[2018-06-21 19:59:09 417] UART Recv: @3[
# 150.0000      623
]

[2018-06-21 19:59:09 417] [Texture] analyzecount=1totalrecvcount=31

[2018-06-21 19:59:09 417] Chart RealTime update[start @30rowsCount=31]

[2018-06-21 19:59:09 417] Binding[10 150 623]
0A23203135352E303030302020202020203634300D
[2018-06-21 19:59:10 423] UART Recv: @3[
# 155.0000      640
]

[2018-06-21 19:59:10 423] [Texture] analyzecount=1totalrecvcount=32

[2018-06-21 19:59:10 423] Chart RealTime update[start @31rowsCount=32]

[2018-06-21 19:59:10 423] Binding[10 155 640]
0A23203136302E303030302020202020203632350D
[2018-06-21 19:59:11 428] UART Recv: @3[
# 160.0000      625
]

[2018-06-21 19:59:11 428] [Texture] analyzecount=1totalrecvcount=33

[2018-06-21 19:59:11 428] Chart RealTime update[start @32rowsCount=33]

[2018-06-21 19:59:11 428] Binding[10 160 625]
0A23203136352E303030302020202020203634330D
[2018-06-21 19:59:12 418] UART Recv: @3[
# 165.0000      643
]

[2018-06-21 19:59:12 418] [Texture] analyzecount=1totalrecvcount=34

[2018-06-21 19:59:12 418] Chart RealTime update[start @33rowsCount=34]

[2018-06-21 19:59:12 418] Binding[10 165 643]
0A23203137302E303030302020202020203633350D
[2018-06-21 19:59:13 428] UART Recv: @3[
# 170.0000      635
]

[2018-06-21 19:59:13 428] [Texture] analyzecount=1totalrecvcount=35

[2018-06-21 19:59:13 428] Chart RealTime update[start @34rowsCount=35]

[2018-06-21 19:59:13 428] Binding[10 170 635]
0A23203137352E303030302020202020203634310D
[2018-06-21 19:59:14 430] UART Recv: @3[
# 175.0000      641
]

[2018-06-21 19:59:14 430] [Texture] analyzecount=1totalrecvcount=36

[2018-06-21 19:59:14 430] Chart RealTime update[start @35rowsCount=36]

[2018-06-21 19:59:14 430] Binding[10 175 641]
0A23203138302E303030302020202020203630320D
[2018-06-21 19:59:15 420] UART Recv: @3[
# 180.0000      602
]

[2018-06-21 19:59:15 420] [Texture] analyzecount=1totalrecvcount=37

[2018-06-21 19:59:15 420] Chart RealTime update[start @36rowsCount=37]

[2018-06-21 19:59:15 420] Binding[10 180 602]
0A23203138352E303030302020202020203634390D
[2018-06-21 19:59:16 426] UART Recv: @3[
# 185.0000      649
]

[2018-06-21 19:59:16 426] [Texture] analyzecount=1totalrecvcount=38

[2018-06-21 19:59:16 426] Chart RealTime update[start @37rowsCount=38]

[2018-06-21 19:59:16 426] Binding[10 185 649]
0A23203139302E303030302020202020203634310D
[2018-06-21 19:59:17 417] UART Recv: @3[
# 190.0000      641
]

[2018-06-21 19:59:17 417] [Texture] analyzecount=1totalrecvcount=39

[2018-06-21 19:59:17 417] Chart RealTime update[start @38rowsCount=39]

[2018-06-21 19:59:17 417] Binding[10 190 641]
0A23203139352E303030302020202020203633310D
[2018-06-21 19:59:18 422] UART Recv: @3[
# 195.0000      631
]

[2018-06-21 19:59:18 422] [Texture] analyzecount=1totalrecvcount=40

[2018-06-21 19:59:18 422] Chart RealTime update[start @39rowsCount=40]

[2018-06-21 19:59:18 422] Binding[10 195 631]
0A23203230302E303030302020202020203634310D
[2018-06-21 19:59:19 429] UART Recv: @3[
# 200.0000      641
]

[2018-06-21 19:59:19 429] [Texture] analyzecount=1totalrecvcount=41

[2018-06-21 19:59:19 429] Chart RealTime update[start @40rowsCount=41]

[2018-06-21 19:59:19 429] Binding[10 200 641]
0A23203230352E303030302020202020203632380D
[2018-06-21 19:59:20 418] UART Recv: @3[
# 205.0000      628
]

[2018-06-21 19:59:20 418] [Texture] analyzecount=1totalrecvcount=42

[2018-06-21 19:59:20 418] Chart RealTime update[start @41rowsCount=42]

[2018-06-21 19:59:20 418] Binding[10 205 628]
0A23203231302E303030302020202020203637310D
[2018-06-21 19:59:21 424] UART Recv: @3[
# 210.0000      671
]

[2018-06-21 19:59:21 424] [Texture] analyzecount=1totalrecvcount=43

[2018-06-21 19:59:21 424] Chart RealTime update[start @42rowsCount=43]

[2018-06-21 19:59:21 424] Binding[10 210 671]
0A23203231352E303030302020202020203630340D
[2018-06-21 19:59:22 429] UART Recv: @3[
# 215.0000      604
]

[2018-06-21 19:59:22 429] [Texture] analyzecount=1totalrecvcount=44

[2018-06-21 19:59:22 429] Chart RealTime update[start @43rowsCount=44]

[2018-06-21 19:59:22 429] Binding[10 215 604]
0A23203232302E303030302020202020203630310D
[2018-06-21 19:59:23 419] UART Recv: @3[
# 220.0000      601
]

[2018-06-21 19:59:23 419] [Texture] analyzecount=1totalrecvcount=45

[2018-06-21 19:59:23 419] Chart RealTime update[start @44rowsCount=45]

[2018-06-21 19:59:23 419] Binding[10 220 601]
0A23203232352E303030302020202020203632310D
[2018-06-21 19:59:24 425] UART Recv: @3[
# 225.0000      621
]

[2018-06-21 19:59:24 425] [Texture] analyzecount=1totalrecvcount=46

[2018-06-21 19:59:24 425] Chart RealTime update[start @45rowsCount=46]

[2018-06-21 19:59:24 425] Binding[10 225 621]
0A23203233302E303030302020202020203635300D
[2018-06-21 19:59:25 415] UART Recv: @3[
# 230.0000      650
]

[2018-06-21 19:59:25 415] [Texture] analyzecount=1totalrecvcount=47

[2018-06-21 19:59:25 415] Chart RealTime update[start @46rowsCount=47]

[2018-06-21 19:59:25 415] Binding[10 230 650]
0A23203233352E303030302020202020203632350D
[2018-06-21 19:59:26 422] UART Recv: @3[
# 235.0000      625
]

[2018-06-21 19:59:26 422] [Texture] analyzecount=1totalrecvcount=48

[2018-06-21 19:59:26 422] Chart RealTime update[start @47rowsCount=48]

[2018-06-21 19:59:26 422] Binding[10 235 625]
0A23203234302E303030302020202020203630340D
[2018-06-21 19:59:27 427] UART Recv: @3[
# 240.0000      604
]

[2018-06-21 19:59:27 427] [Texture] analyzecount=1totalrecvcount=49

[2018-06-21 19:59:27 427] Chart RealTime update[start @48rowsCount=49]

[2018-06-21 19:59:27 428] Binding[10 240 604]
0A23203234352E303030302020202020203630340D
[2018-06-21 19:59:28 419] UART Recv: @3[
# 245.0000      604
]

[2018-06-21 19:59:28 419] [Texture] analyzecount=1totalrecvcount=50

[2018-06-21 19:59:28 419] Chart RealTime update[start @49rowsCount=50]

[2018-06-21 19:59:28 419] Binding[10 245 604]
0A23203235302E303030302020202020203635340D
[2018-06-21 19:59:29 423] UART Recv: @3[
# 250.0000      654
]

[2018-06-21 19:59:29 424] [Texture] analyzecount=1totalrecvcount=51

[2018-06-21 19:59:29 424] Chart RealTime update[start @50rowsCount=51]

[2018-06-21 19:59:29 424] Binding[10 250 654]
0A23203235352E303030302020202020203630380D
[2018-06-21 19:59:30 429] UART Recv: @3[
# 255.0000      608
]

[2018-06-21 19:59:30 429] [Texture] analyzecount=1totalrecvcount=52

[2018-06-21 19:59:30 429] Chart RealTime update[start @51rowsCount=52]

[2018-06-21 19:59:30 429] Binding[10 255 608]
0A23203236302E303030302020202020203633380D
[2018-06-21 19:59:31 419] UART Recv: @3[
# 260.0000      638
]

[2018-06-21 19:59:31 419] [Texture] analyzecount=1totalrecvcount=53

[2018-06-21 19:59:31 419] Chart RealTime update[start @52rowsCount=53]

[2018-06-21 19:59:31 419] Binding[10 260 638]
0A23203236352E303030302020202020203632390D
[2018-06-21 19:59:32 425] UART Recv: @3[
# 265.0000      629
]

[2018-06-21 19:59:32 425] [Texture] analyzecount=1totalrecvcount=54

[2018-06-21 19:59:32 425] Chart RealTime update[start @53rowsCount=54]

[2018-06-21 19:59:32 425] Binding[10 265 629]
0A23203237302E303030302020202020203634300D
[2018-06-21 19:59:33 414] UART Recv: @3[
# 270.0000      640
]

[2018-06-21 19:59:33 414] [Texture] analyzecount=1totalrecvcount=55

[2018-06-21 19:59:33 414] Chart RealTime update[start @54rowsCount=55]

[2018-06-21 19:59:33 414] Binding[10 270 640]
0A23203237352E303030302020202020203633330D
[2018-06-21 19:59:34 420] UART Recv: @3[
# 275.0000      633
]

[2018-06-21 19:59:34 420] [Texture] analyzecount=1totalrecvcount=56

[2018-06-21 19:59:34 420] Chart RealTime update[start @55rowsCount=56]

[2018-06-21 19:59:34 420] Binding[10 275 633]
0A23203238302E303030302020202020203635370D
[2018-06-21 19:59:35 427] UART Recv: @3[
# 280.0000      657
]

[2018-06-21 19:59:35 427] [Texture] analyzecount=1totalrecvcount=57

[2018-06-21 19:59:35 427] Chart RealTime update[start @56rowsCount=57]

[2018-06-21 19:59:35 427] Binding[10 280 657]
0A23203238352E303030302020202020203634310D
[2018-06-21 19:59:36 416] UART Recv: @3[
# 285.0000      641
]

[2018-06-21 19:59:36 416] [Texture] analyzecount=1totalrecvcount=58

[2018-06-21 19:59:36 416] Chart RealTime update[start @57rowsCount=58]

[2018-06-21 19:59:36 416] Binding[10 285 641]
0A23203239302E303030302020202020203630310D
[2018-06-21 19:59:37 422] UART Recv: @3[
# 290.0000      601
]

[2018-06-21 19:59:37 422] [Texture] analyzecount=1totalrecvcount=59

[2018-06-21 19:59:37 422] Chart RealTime update[start @58rowsCount=59]

[2018-06-21 19:59:37 422] Binding[10 290 601]
0A23203239352E303030302020202020203635390D
[2018-06-21 19:59:38 428] UART Recv: @3[
# 295.0000      659
]

[2018-06-21 19:59:38 428] [Texture] analyzecount=1totalrecvcount=60

[2018-06-21 19:59:38 428] Chart RealTime update[start @59rowsCount=60]

[2018-06-21 19:59:38 428] Binding[10 295 659]
0A23203330302E303030302020202020203638320D
[2018-06-21 19:59:39 418] UART Recv: @3[
# 300.0000      682
]

[2018-06-21 19:59:39 418] [Texture] analyzecount=1totalrecvcount=61

[2018-06-21 19:59:39 418] Chart RealTime update[start @60rowsCount=61]

[2018-06-21 19:59:39 418] Binding[10 300 682]
0A23203330352E303030302020202020203631370D
[2018-06-21 19:59:40 424] UART Recv: @3[
# 305.0000      617
]

[2018-06-21 19:59:40 424] [Texture] analyzecount=1totalrecvcount=62

[2018-06-21 19:59:40 424] Chart RealTime update[start @61rowsCount=62]

[2018-06-21 19:59:40 424] Binding[10 305 617]
0A23203331302E303030302020202020203634310D
[2018-06-21 19:59:41 414] UART Recv: @3[
# 310.0000      641
]

[2018-06-21 19:59:41 414] [Texture] analyzecount=1totalrecvcount=63

[2018-06-21 19:59:41 414] Chart RealTime update[start @62rowsCount=63]

[2018-06-21 19:59:41 414] Binding[10 310 641]
0A23203331352E303030302020202020203537330D
[2018-06-21 19:59:42 419] UART Recv: @3[
# 315.0000      573
]

[2018-06-21 19:59:42 419] [Texture] analyzecount=1totalrecvcount=64

[2018-06-21 19:59:42 419] Chart RealTime update[start @63rowsCount=64]

[2018-06-21 19:59:42 419] Binding[10 315 573]
0A23203332302E303030302020202020203634340D
[2018-06-21 19:59:43 426] UART Recv: @3[
# 320.0000      644
]

[2018-06-21 19:59:43 426] [Texture] analyzecount=1totalrecvcount=65

[2018-06-21 19:59:43 426] Chart RealTime update[start @64rowsCount=65]

[2018-06-21 19:59:43 426] Binding[10 320 644]
0A23203332352E303030302020202020203633380D
[2018-06-21 19:59:44 416] UART Recv: @3[
# 325.0000      638
]

[2018-06-21 19:59:44 416] [Texture] analyzecount=1totalrecvcount=66

[2018-06-21 19:59:44 416] Chart RealTime update[start @65rowsCount=66]

[2018-06-21 19:59:44 416] Binding[10 325 638]
0A23203333302E303030302020202020203636300D
[2018-06-21 19:59:45 422] UART Recv: @3[
# 330.0000      660
]

[2018-06-21 19:59:45 422] [Texture] analyzecount=1totalrecvcount=67

[2018-06-21 19:59:45 422] Chart RealTime update[start @66rowsCount=67]

[2018-06-21 19:59:45 422] Binding[10 330 660]
0A23203333352E303030302020202020203634370D
[2018-06-21 19:59:46 427] UART Recv: @3[
# 335.0000      647
]

[2018-06-21 19:59:46 427] [Texture] analyzecount=1totalrecvcount=68

[2018-06-21 19:59:46 427] Chart RealTime update[start @67rowsCount=68]

[2018-06-21 19:59:46 427] Binding[10 335 647]
0A23203334302E303030302020202020203637340D
[2018-06-21 19:59:47 417] UART Recv: @3[
# 340.0000      674
]

[2018-06-21 19:59:47 417] [Texture] analyzecount=1totalrecvcount=69

[2018-06-21 19:59:47 417] Chart RealTime update[start @68rowsCount=69]

[2018-06-21 19:59:47 417] Binding[10 340 674]
0A23203334352E303030302020202020203631340D
[2018-06-21 19:59:48 423] UART Recv: @3[
# 345.0000      614
]

[2018-06-21 19:59:48 423] [Texture] analyzecount=1totalrecvcount=70

[2018-06-21 19:59:48 423] Chart RealTime update[start @69rowsCount=70]

[2018-06-21 19:59:48 423] Binding[10 345 614]
0A23203335302E303030302020202020203630320D
[2018-06-21 19:59:49 429] UART Recv: @3[
# 350.0000      602
]

[2018-06-21 19:59:49 429] [Texture] analyzecount=1totalrecvcount=71

[2018-06-21 19:59:49 429] Chart RealTime update[start @70rowsCount=71]

[2018-06-21 19:59:49 429] Binding[10 350 602]
0A23203335352E303030302020202020203635340D0A46697665422D4F4B0D0A433D
[2018-06-21 19:59:50 435] UART Recv: @3[
# 355.0000      654
FiveB-OK
C=]

[2018-06-21 19:59:50 435] [Texture] analyzecount=1totalrecvcount=72

[2018-06-21 19:59:50 436] Chart RealTime update[start @71rowsCount=72]

[2018-06-21 19:59:50 436] Binding[10 355 654]
5348430D
[2018-06-21 19:59:54 171] UART Recv: @3[SHC
]
5348430D
[2018-06-21 19:59:54 207] UART Send: [SHC
]
0A433D
[2018-06-21 19:59:54 315] UART Recv: @3[
C=]
534B4D3020300D
[2018-06-21 19:59:54 316] UART Send: [SKM0 0
]
534B4D3020300D
[2018-06-21 19:59:54 442] UART Recv: @3[SKM0 0
]
0A433D
[2018-06-21 19:59:56 151] UART Recv: @3[
C=]

[2018-06-21 19:59:56 214] [Parent] voltage update

[2018-06-21 20:03:06 311] [Parent] closing
[2018-06-21 20:03:06 311]Log End******************************************************