File: XRD_Tool/log/LDA_sample_name_56789_Psi-24_20180623-130916.txt
138.0000     147
138.0200     147
138.0400     132
138.0600     116
138.0800     130
138.1000     152
138.1200     154
138.1400     147
138.1600     135
138.1800     122
138.2000     117
138.2200     111
138.2400      82
138.2600      51
138.2800      57
138.3000      76
138.3200      90
138.3400     100
138.3600     100
138.3800      97
138.4000     104
138.4200     113
138.4400     120
138.4600     123
138.4800     108
138.5000      92
138.5200     106
138.5400     125
138.5600     107
138.5800      79
138.6000      68
138.6200      65
138.6400      67
138.6600      71
138.6800      75
138.7000      80
138.7200      93
138.7400     103
138.7600      83
138.7800      58
138.8000      70
138.8200      95
138.8400     115
138.8600     125
138.8800      98
138.9000      67
138.9200      91
138.9400     129
138.9600     126
138.9800     108
139.0000     105
139.0200     105
139.0400      97
139.0600      90
139.0800     108
139.1000     131
139.1200     132
139.1400     123
139.1600     106
139.1800      90
139.2000      97
139.2200     108
139.2400      91
139.2600      65
139.2800      52
139.3000      49
139.3200      73
139.3400     102
139.3600     104
139.3800      99
139.4000     109
139.4200     123
139.4400     127
139.4600     125
139.4800     111
139.5000      94
139.5200      81
139.5400      70
139.5600      69
139.5800      73
139.6000      90
139.6200     110
139.6400     117
139.6600     117
139.6800     110
139.7000      99
139.7200      78
139.7400      59
139.7600      63
139.7800      77
139.8000      88
139.8200     101
139.8400     132
139.8600     163
139.8800     156
139.9000     138
139.9200     140
139.9400     147
139.9600     141
139.9800     130
140.0000     124
140.0200     121
140.0400     128
140.0600     135
140.0800     130
140.1000     118
140.1200      91
140.1400      66
140.1600      73
140.1800      90
140.2000      97
140.2200      99
140.2400     104
140.2600     111
140.2800     118
140.3000     123
140.3200     115
140.3400     103
140.3600     101
140.3800     103
140.4000     103
140.4200     100
140.4400      79
140.4600      60
140.4800      89
140.5000     124
140.5200      91
140.5400      45
140.5600      70
140.5800     114
140.6000     103
140.6200      75
140.6400      69
140.6600      73
140.6800      89
140.7000     105
140.7200     104
140.7400      97
140.7600      93
140.7800      90
140.8000      81
140.8200      75
140.8400     104
140.8600     137
140.8800     127
140.9000     100
140.9200      79
140.9400      67
140.9600      84
140.9800     111
141.0000     134
141.0200     149
141.0400     126
141.0600      93
141.0800      87
141.1000      92
141.1200     107
141.1400     121
141.1600     117
141.1800     104
141.2000      86
141.2200      74
141.2400     105
141.2600     141
141.2800     117
141.3000      80
141.3200      96
141.3400     129
141.3600     136
141.3800     127
141.4000      94
141.4200      65
141.4400     100
141.4600     148
141.4800     137
141.5000     111
141.5200     120
141.5400     136
141.5600     109
141.5800      71
141.6000      66
141.6200      76
141.6400      96
141.6600     114
141.6800     102
141.7000      83
141.7200      91
141.7400     110
141.7600     132
141.7800     151
141.8000     145
141.8200     129
141.8400     111
141.8600      97
141.8800     100
141.9000     108
141.9200     104
141.9400      98
141.9600     104
141.9800     115
142.0000     131
142.0200     145
142.0400     141
142.0600     128
142.0800     111
142.1000      94
142.1200      79
142.1400      66
142.1600      60
142.1800      65
142.2000     118
142.2200     175
142.2400     159
142.2600     120
142.2800     118
142.3000     128
142.3200     128
142.3400     118
142.3600      78
142.3800      39
142.4000      70
142.4200     116
142.4400     102
142.4600      75
142.4800     105
142.5000     153
142.5200     186
142.5400     199
142.5600     147
142.5800      84
142.6000      99
142.6200     140
142.6400     153
142.6600     152
142.6800     136
142.7000     120
142.7200     137
142.7400     158
142.7600     133
142.7800      97
142.8000     104
142.8200     126
142.8400     136
142.8600     143
142.8800     155
142.9000     163
142.9200     136
142.9400     100
142.9600      82
142.9800      76
143.0000      89
143.0200     107
143.0400     115
143.0600     118
143.0800     117
143.1000     117
143.1200     122
143.1400     131
143.1600     145
143.1800     158
143.2000     156
143.2200     144
143.2400     112
143.2600      78
143.2800      72
143.3000      78
143.3200      79
143.3400      77
143.3600      62
143.3800      53
143.4000     100
143.4200     157
143.4400     149
143.4600     118
143.4800      99
143.5000      89
143.5200      99
143.5400     113
143.5600     109
143.5800      99
143.6000     104
143.6200     114
143.6400     122
143.6600     129
143.6800     133
143.7000     134
143.7200     128
143.7400     124
143.7600     142
143.7800     161
143.8000     143
143.8200     113
143.8400      93
143.8600      83
143.8800     100
143.9000     123
143.9200     124
143.9400     115
143.9600     103
143.9800      92
144.0000      99
144.0200     111
144.0400     110
144.0600     109
144.0800     133
144.1000     157
144.1200     131
144.1400      91
144.1600      79
144.1800      80
144.2000      88
144.2200      97
144.2400     103
144.2600     106
144.2800     107
144.3000     107
144.3200     105
144.3400     107
144.3600     126
144.3800     149
144.4000     155
144.4200     155
144.4400     152
144.4600     147
144.4800     137
144.5000     128
144.5200     134
144.5400     140
144.5600     121
144.5800      96
144.6000      98
144.6200     105
144.6400      92
144.6600      73
144.6800      72
144.7000      81
144.7200     104
144.7400     125
144.7600     114
144.7800      95
144.8000      98
144.8200     108
144.8400     109
144.8600     105
144.8800      90
144.9000      75
144.9200      85
144.9400     100
144.9600      91
144.9800      76
145.0000      75
145.0200      76
145.0400      65
145.0600      52
145.0800      54
145.1000      64
145.1200      81
145.1400      96
145.1600      91
145.1800      80
145.2000      86
145.2200      99
145.2400     117
145.2600     132
145.2800     125
145.3000     114
145.3200     130
145.3400     149
145.3600     131
145.3800     105
145.4000     106
145.4200     116
145.4400     116
145.4600     109
145.4800      88
145.5000      69
145.5200      85
145.5400     109
145.5600     100
145.5800      80
145.6000      70
145.6200      64
145.6400      58
145.6600      56
145.6800      74
145.7000      95
145.7200      91
145.7400      81
145.7600      94
145.7800     114
145.8000     124
145.8200     127
145.8400     115
145.8600     101
145.8800     104
145.9000     110
145.9200      99
145.9400      84
145.9600      79
145.9800      79
146.0000      76
146.0200      72
146.0400      68
146.0600      63
146.0800      56
146.1000      53
146.1200      77
146.1400     106
146.1600     113
146.1800     112
146.2000     113
146.2200     112
146.2400      98
146.2600      84
146.2800     101
146.3000     127
146.3200     133
146.3400     130
146.3600     121
146.3800     110
146.4000     109
146.4200     111
146.4400     115
146.4600     115
146.4800      96
146.5000      75
146.5200      79
146.5400      93
146.5600     107
146.5800     117
146.6000     104
146.6200      84
146.6400      76
146.6600      74
146.6800      87
146.7000     100
146.7200      86
146.7400      70
146.7600      92
146.7800     124
146.8000     126
146.8200     117
146.8400     110
146.8600     107
146.8800     117
146.9000     127
146.9200     105
146.9400      77
146.9600      78
146.9800      86
147.0000      74
147.0200      60
147.0400      76
147.0600      97
147.0800      84
147.1000      60
147.1200      46
147.1400      41
147.1600      61
147.1800      91
147.2000     118
147.2200     136
147.2400     112
147.2600      79
147.2800      83
147.3000      95
147.3200      79
147.3400      60
147.3600      87
147.3800     127
147.4000     134
147.4200     126
147.4400     108
147.4600      87
147.4800      73
147.5000      64
147.5200      70
147.5400      81
147.5600      90
147.5800      97
147.6000      99
147.6200      98
147.6400      92
147.6600      82
147.6800      60
147.7000      40
147.7200      50
147.7400      71
147.7600      87
147.7800      98
147.8000      93
147.8200      83
147.8400      83
147.8600      89
147.8800     108
147.9000     130
147.9200     142
147.9400     148
147.9600     146
147.9800     142
148.0000     146
148.0200     148
148.0400     118
148.0600      84
148.0800      90
148.1000     108
148.1200     106
148.1400     102
148.1600     125
148.1800     149
148.2000     125
148.2200      87
148.2400      82
148.2600      93
148.2800     119
148.3000     143
148.3200     124
148.3400      95
148.3600     101
148.3800     118
148.4000     121
148.4200     119
148.4400     117
148.4600     115
148.4800     113
148.5000     110
148.5200      99
148.5400      85
148.5600      74
148.5800      65
148.6000      60
148.6200      59
148.6400      76
148.6600     101
148.6800     133
148.7000     156
148.7200     127
148.7400      85
148.7600      83
148.7800      98
148.8000     117
148.8200     133
148.8400     134
148.8600     126
148.8800     110
148.9000      95
148.9200     105
148.9400     117
148.9600      92
148.9800      61
149.0000      72
149.0200      93
149.0400      84
149.0600      66
149.0800      66
149.1000      78
149.1200     107
149.1400     137
149.1600     138
149.1800     126
149.2000     103
149.2200      79
149.2400      76
149.2600      83
149.2800      95
149.3000     104
149.3200      88
149.3400      66
149.3600      64
149.3800      72
149.4000      85
149.4200      98
149.4400      93
149.4600      82
149.4800      81
149.5000      83
149.5200      87
149.5400      90
149.5600      89
149.5800      87
149.6000      82
149.6200      78
149.6400      86
149.6600      92
149.6800      69
149.7000      45
149.7200      70
149.7400     107
149.7600     110
149.7800     104
149.8000     113
149.8200     124
149.8400     112
149.8600      95
149.8800     105
149.9000     125
149.9200     145
149.9400     156
149.9600     122
149.9800      76
150.0000      61
150.0200      64
150.0400      92
150.0600     124
150.0800     121
150.1000     106
150.1200      94
150.1400      85
150.1600      81
150.1800      81
150.2000      88
150.2200      98
150.2400     110
150.2600     119
150.2800     114
150.3000     109
150.3200     128
150.3400     145
150.3600     107
150.3800      58
150.4000      67
150.4200      93
150.4400      91
150.4600      79
150.4800      80
150.5000      85
150.5200      85
150.5400      87
150.5600     106
150.5800     130
150.6000     142
150.6200     143
150.6400     111
150.6600      73
150.6800      77
150.7000      93
150.7200      92
150.7400      84
150.7600      76
150.7800      69
150.8000      69
150.8200      74
150.8400      94
150.8600     116
150.8800     121
150.9000     118
150.9200     109
150.9400      99
150.9600     104
150.9800     108
151.0000      84
151.0200      57
151.0400      75
151.0600     104
151.0800     101
151.1000      88
151.1200      90
151.1400      97
151.1600      99
151.1800      97
151.2000      87
151.2200      74
151.2400      68
151.2600      63
151.2800      53
151.3000      48
151.3200      81
151.3400     118
151.3600     102
151.3800      73
151.4000      89
151.4200     117
151.4400     115
151.4600     101
151.4800      85
151.5000      74
151.5200      90
151.5400     110
151.5600     103
151.5800      90
151.6000      97
151.6200     110
151.6400     110
151.6600     103
151.6800      89
151.7000      74
151.7200      61
151.7400      53
151.7600      66
151.7800      85
151.8000      88
151.8200      84
151.8400      85
151.8600      88
151.8800      99
151.9000     112
151.9200     117
151.9400     117
151.9600     110
151.9800     101
152.0000      94
152.0200      92
152.0400     113
152.0600     136
152.0800     123
152.1000      94
152.1200      63
152.1400      41
152.1600      67
152.1800     105
152.2000     100
152.2200      80
152.2400      73
152.2600      77
152.2800     108
152.3000     142
152.3200     138
152.3400     122
152.3600     129
152.3800     142
152.4000     137
152.4200     123
152.4400     104
152.4600      88
152.4800     102
152.5000     123
152.5200     117
152.5400     105
152.5600     110
152.5800     116
152.6000      93
152.6200      65
152.6400      66
152.6600      78
152.6800      95
152.7000     110
152.7200     108
152.7400     102
152.7600     104
152.7800     106
152.8000      88
152.8200      72
152.8400     103
152.8600     145
152.8800     147
152.9000     134
152.9200     126
152.9400     121
152.9600     123
152.9800     129
153.0000     150
153.0200     170
153.0400     162
153.0600     142
153.0800     122
153.1000     105
153.1200     106
153.1400     109
153.1600      89
153.1800      68
153.2000      92
153.2200     122
153.2400      95
153.2600      53
153.2800      48
153.3000      60
153.3200      85
153.3400     111
153.3600     112
153.3800     108
153.4000     122
153.4200     139
153.4400     126
153.4600     105
153.4800      99
153.5000      98
153.5200      94
153.5400      86
153.5600      70
153.5800      56
153.6000      75
153.6200     103
153.6400     111
153.6600     112
153.6800     120
153.7000     125
153.7200     103
153.7400      76
153.7600      76
153.7800      84
153.8000      84
153.8200      83
153.8400     100
153.8600     120
153.8800     120
153.9000     111
153.9200      99
153.9400      90
153.9600     104
153.9800     122
154.0000     107
154.0200      85
154.0400      93
154.0600     106
154.0800      85
154.1000      61
154.1200      86
154.1400     125
154.1600     142
154.1800     145
154.2000     120
154.2200      89
154.2400      83
154.2600      87
154.2800      91
154.3000      94
154.3200      97
154.3400      96
154.3600      80
154.3800      61
154.4000      59
154.4200      68
154.4400     103
154.4600     142
154.4800     143
154.5000     128
154.5200     110
154.5400      95
154.5600     106
154.5800     123
154.6000     114
154.6200      99
154.6400     109
154.6600     123
154.6800     108
154.7000      89
154.7200     102
154.7400     120
154.7600     100
154.7800      69
154.8000      63
154.8200      72
154.8400     109
154.8600     145
154.8800     119
154.9000      73
154.9200      47
154.9400      38
154.9600      71
154.9800     109
155.0000      89
155.0200      52
155.0400      53
155.0600      72
155.0800     108
155.1000     141
155.1200     127
155.1400     101
155.1600     102
155.1800     107
155.2000      82
155.2200      53
155.2400      69
155.2600      98
155.2800     104
155.3000     101
155.3200     103
155.3400     107
155.3600     112
155.3800     117
155.4000     114
155.4200     108
155.4400     104
155.4600     100
155.4800      99
155.5000      98
155.5200      89
155.5400      78
155.5600      77
155.5800      78
155.6000      76
155.6200      73
155.6400      78
155.6600      87
155.6800     103
155.7000     119
155.7200     123
155.7400     119
155.7600      97
155.7800      72
155.8000      72
155.8200      81
155.8400      85
155.8600      87
155.8800      87
155.9000      88
155.9200      91
155.9400      97
155.9600     113
155.9800     127
156.0000     112
156.0200      91
156.0400      90
156.0600     101
156.0800     129
156.1000     154
156.1200     136
156.1400     105
156.1600     100
156.1800     103
156.2000      91
156.2200      80
156.2400      99
156.2600     127
156.2800     133
156.3000     133
156.3200     138
156.3400     139
156.3600     107
156.3800      69
156.4000      73
156.4200      90
156.4400      92
156.4600      90
156.4800     101
156.5000     115
156.5200     119
156.5400     119
156.5600     119
156.5800     123
156.6000     147
156.6200     170
156.6400     150
156.6600     112
156.6800      76
156.7000      48
156.7200      61
156.7400      89
156.7600     104
156.7800     110
156.8000      94
156.8200      75
156.8400      79
156.8600      93
156.8800     104
156.9000     110
156.9200      99
156.9400      83
156.9600      74
156.9800      70
157.0000      79
157.0200      93
157.0400     104
157.0600     110
157.0800      98
157.1000      80
157.1200      77
157.1400      81
157.1600      98
157.1800     117
157.2000     120
157.2200     114
157.2400     101
157.2600      90
157.2800     106
157.3000     126
157.3200     114
157.3400      91
157.3600      73
157.3800      60
157.4000      60
157.4200      67
157.4400      74
157.4600      81
157.4800      81
157.5000      82
157.5200      93
157.5400     105
157.5600      94
157.5800      75
157.6000      64
157.6200      58
157.6400      59
157.6600      63
157.6800      72
157.7000      82
157.7200      90
157.7400      95
157.7600      82
157.7800      67
157.8000      77
157.8200      95
157.8400     106
157.8600     112
157.8800     105
157.9000      95
157.9200      96
157.9400      98
157.9600      79
157.9800      60
158.0000      89
158.0200     126
158.0400     106
158.0600      71
158.0800      71
158.1000      80
158.1200      61
158.1400      37
158.1600      46
158.1800      65
158.2000      66
158.2200      60
158.2400      57
158.2600      57
158.2800      66
158.3000      77
158.3200      83
158.3400      88
158.3600      99
158.3800     110
158.4000     106
158.4200      96
158.4400      85
158.4600      79
158.4800     108
158.5000     141
158.5200     132
158.5400     110
158.5600     103
158.5800     101
158.6000      91
158.6200      78
158.6400      72
158.6600      74
158.6800     109
158.7000     147
158.7200     133
158.7400     106
158.7600     109
158.7800     119
158.8000      99
158.8200      73
158.8400      75
158.8600      90
158.8800     107
158.9000     120
158.9200     108
158.9400      87
158.9600      71
158.9800      63
159.0000      88
159.0200     123
159.0400     138
159.0600     141
159.0800     117
159.1000      88
159.1200      84
159.1400      88
159.1600      79
159.1800      71
159.2000      93
159.2200     122
159.2400     126
159.2600     118
159.2800      98
159.3000      78
159.3200      78
159.3400      85
159.3600      84
159.3800      82
159.4000      95
159.4200     109
159.4400     106
159.4600      93
159.4800      64
159.5000      39
159.5200      72
159.5400     119
159.5600     118
159.5800      99
159.6000      85
159.6200      77
159.6400      89
159.6600     106
159.6800     108
159.7000     105
159.7200     107
159.7400     110
159.7600     108
159.7800     104
159.8000     103
159.8200     104
159.8400     112
159.8600     119
159.8800     109
159.9000      97
159.9200     103
159.9400     115
159.9600     112
159.9800     105
160.0000     101
160.0200     101
160.0400     111
160.0600     123
160.0800     120
160.1000     111
160.1200      94
160.1400      78
160.1600      82
160.1800      89
160.2000      76
160.2200      58
160.2400      58
160.2600      67
160.2800      83
160.3000      96
160.3200      82
160.3400      64
160.3600      78
160.3800     100
160.4000     100
160.4200      91
160.4400      79
160.4600      70
160.4800      84
160.5000     106
160.5200     115
160.5400     114
160.5600      91
160.5800      64
160.6000      59
160.6200      64
160.6400      75
160.6600      88
160.6800      93
160.7000      93
160.7200      86
160.7400      76
160.7600      65
160.7800      58
160.8000      79
160.8200     105
160.8400      99
160.8600      81
160.8800      62
160.9000      42
160.9200      23
160.9400      10
160.9600      17
160.9800      36
161.0000      72
161.0200     106
161.0400     103
161.0600      85
161.0800      62
161.1000      44
161.1200      54
161.1400      72
161.1600      67
161.1800      60
161.2000      86
161.2200     121
161.2400     128
161.2600     121
161.2800     102
161.3000      83
161.3200      86
161.3400      98
161.3600     113
161.3800     122
161.4000      98
161.4200      69
161.4400      87
161.4600     114
161.4800      96
161.5000      68
161.5200      81
161.5400     105
161.5600      94
161.5800      70
161.6000      46
161.6200      29
161.6400      49
161.6600      77
161.6800      75
161.7000      64
161.7200      71
161.7400      86
161.7600     101
161.7800     115
161.8000     121
161.8200     120
161.8400     107
161.8600      89
161.8800      70
161.9000      53
161.9200      56
161.9400      64
161.9600      65
161.9800      66