File: XRD_Tool/log/LDA_sample_name_56789_Psi-24_20180623-131526.txt
138.0000     104
138.0200      70
138.0400      66
138.0600      75
138.0800      92
138.1000     110
138.1200     118
138.1400     121
138.1600     118
138.1800     115
138.2000     128
138.2200     141
138.2400     119
138.2600      89
138.2800      88
138.3000      94
138.3200      83
138.3400      73
138.3600     100
138.3800     130
138.4000     100
138.4200      52
138.4400      39
138.4600      42
138.4800      63
138.5000      91
138.5200     114
138.5400     131
138.5600     120
138.5800     102
138.6000     109
138.6200     122
138.6400     118
138.6600     107
138.6800      91
138.7000      77
138.7200      80
138.7400      85
138.7600      68
138.7800      49
138.8000      67
138.8200      92
138.8400      85
138.8600      70
138.8800      80
138.9000      99
138.9200     110
138.9400     121
138.9600     149
138.9800     171
139.0000     136
139.0200      88
139.0400      90
139.0600     110
139.0800     118
139.1000     120
139.1200     107
139.1400      94
139.1600     106
139.1800     124
139.2000     122
139.2200     114
139.2400     114
139.2600     117
139.2800     115
139.3000     111
139.3200     104
139.3400      97
139.3600      97
139.3800      95
139.4000      73
139.4200      49
139.4400      55
139.4600      69
139.4800      66
139.5000      58
139.5200      60
139.5400      68
139.5600      83
139.5800      99
139.6000     108
139.6200     107
139.6400      68
139.6600      24
139.6800      33
139.7000      63
139.7200      90
139.7400     112
139.7600     119
139.7800     114
139.8000      87
139.8200      58
139.8400      63
139.8600      81
139.8800     104
139.9000     123
139.9200     119
139.9400     110
139.9600     131
139.9800     153
140.0000     125
140.0200      82
140.0400      66
140.0600      61
140.0800      61
140.1000      65
140.1200      84
140.1400     105
140.1600     114
140.1800     118
140.2000     117
140.2200     112
140.2400      89
140.2600      61
140.2800      48
140.3000      43
140.3200      53
140.3400      71
140.3600     102
140.3800     135
140.4000     153
140.4200     163
140.4400     158
140.4600     143
140.4800     105
140.5000      69
140.5200      91
140.5400     125
140.5600      97
140.5800      56
140.6000      69
140.6200      96
140.6400      89
140.6600      71
140.6800      63
140.7000      61
140.7200      64
140.7400      77
140.7600     122
140.7800     166
140.8000     141
140.8200      93
140.8400      62
140.8600      48
140.8800      84
140.9000     131
140.9200     135
140.9400     118
140.9600      87
140.9800      59
141.0000      68
141.0200      91
141.0400     111
141.0600     126
141.0800     126
141.1000     121
141.1200     121
141.1400     122
141.1600     118
141.1800     111
141.2000      99
141.2200      87
141.2400      90
141.2600      94
141.2800      78
141.3000      63
141.3200      93
141.3400     131
141.3600     121
141.3800      96
141.4000      97
141.4200     109
141.4400     118
141.4600     123
141.4800     116
141.5000     100
141.5200      64
141.5400      29
141.5600      39
141.5800      65
141.6000      80
141.6200      88
141.6400      89
141.6600      90
141.6800     103
141.7000     114
141.7200      95
141.7400      69
141.7600      76
141.7800      96
141.8000     116
141.8200     132
141.8400     123
141.8600     105
141.8800      89
141.9000      78
141.9200      90
141.9400     110
141.9600     117
141.9800     115
142.0000      96
142.0200      74
142.0400      69
142.0600      72
142.0800      80
142.1000      87
142.1200      79
142.1400      73
142.1600     108
142.1800     151
142.2000     149
142.2200     129
142.2400     108
142.2600      93
142.2800     113
142.3000     142
142.3200     147
142.3400     141
142.3600     120
142.3800     101
142.4000     114
142.4200     132
142.4400     111
142.4600      82
142.4800      83
142.5000      97
142.5200     108
142.5400     116
142.5600     115
142.5800     111
142.6000     104
142.6200      92
142.6400      63
142.6600      39
142.6800      75
142.7000     123
142.7200     106
142.7400      70
142.7600      62
142.7800      69
142.8000      88
142.8200     110
142.8400     125
142.8600     132
142.8800     109
142.9000      86
142.9200     115
142.9400     156
142.9600     155
142.9800     135
143.0000     105
143.0200      78
143.0400      83
143.0600      97
143.0800      91
143.1000      79
143.1200      82
143.1400      90
143.1600      96
143.1800      97
143.2000      75
143.2200      53
143.2400      79
143.2600     117
143.2800     115
143.3000      99
143.3200      90
143.3400      87
143.3600      99
143.3800     113
143.4000     112
143.4200     106
143.4400     112
143.4600     121
143.4800     125
143.5000     130
143.5200     150
143.5400     166
143.5600     132
143.5800      83
143.6000      59
143.6200      51
143.6400      76
143.6600     105
143.6800      87
143.7000      60
143.7200      75
143.7400     106
143.7600     132
143.7800     149
143.8000     131
143.8200     104
143.8400     104
143.8600     108
143.8800      85
143.9000      56
143.9200      49
143.9400      53
143.9600      70
143.9800      91
144.0000     107
144.0200     118
144.0400     112
144.0600     103
144.0800     106
144.1000     111
144.1200     101
144.1400      84
144.1600      65
144.1800      51
144.2000      64
144.2200      86
144.2400     101
144.2600     110
144.2800     104
144.3000      95
144.3200     101
144.3400     109
144.3600      94
144.3800      78
144.4000     104
144.4200     141
144.4400     153
144.4600     150
144.4800     123
144.5000      93
144.5200      90
144.5400     101
144.5600     125
144.5800     146
144.6000     122
144.6200      90
144.6400     108
144.6600     134
144.6800     100
144.7000      51
144.7200      47
144.7400      60
144.7600      66
144.7800      69
144.8000      67
144.8200      64
144.8400      63
144.8600      64
144.8800      72
144.9000      81
144.9200      88
144.9400      95
144.9600     104
144.9800     106
145.0000      68
145.0200      25
145.0400      40
145.0600      72
145.0800      71
145.1000      62
145.1200      81
145.1400     103
145.1600      85
145.1800      57
145.2000      59
145.2200      71
145.2400      73
145.2600      70
145.2800      62
145.3000      57
145.3200      74
145.3400      95
145.3600      94
145.3800      87
145.4000      93
145.4200     106
145.4400     121
145.4600     136
145.4800     149
145.5000     156
145.5200     137
145.5400     104
145.5600      61
145.5800      26
145.6000      56
145.6200      99
145.6400      75
145.6600      34
145.6800      35
145.7000      51
145.7200      62
145.7400      71
145.7600      87
145.7800     101
145.8000      95
145.8200      85
145.8400      98
145.8600     116
145.8800     116
145.9000     104
145.9200      75
145.9400      45
145.9600      45
145.9800      56
146.0000      61
146.0200      62
146.0400      58
146.0600      56
146.0800      77
146.1000     102
146.1200     100
146.1400      91
146.1600      92
146.1800      95
146.2000      81
146.2200      63
146.2400      54
146.2600      51
146.2800      63
146.3000      79
146.3200      85
146.3400      84
146.3600      71
146.3800      57
146.4000      65
146.4200      84
146.4400     116
146.4600     144
146.4800     122
146.5000      85
146.5200      73
146.5400      71
146.5600      69
146.5800      68
146.6000      74
146.6200      79
146.6400      67
146.6600      51
146.6800      42
146.7000      43
146.7200      82
146.7400     127
146.7600     129
146.7800     112
146.8000      88
146.8200      68
146.8400      80
146.8600     100
146.8800     102
146.9000      93
146.9200      72
146.9400      55
146.9600      80
146.9800     113
147.0000     101
147.0200      71
147.0400      46
147.0600      31
147.0800      59
147.1000      99
147.1200     109
147.1400     105
147.1600      91
147.1800      76
147.2000      78
147.2200      90
147.2400     122
147.2600     155
147.2800     151
147.3000     133
147.3200     112
147.3400      90
147.3600      73
147.3800      65
147.4000     100
147.4200     145
147.4400     154
147.4600     144
147.4800     115
147.5000      87
147.5200      98
147.5400     120
147.5600     122
147.5800     115
147.6000     106
147.6200      96
147.6400      83
147.6600      73
147.6800      83
147.7000     100
147.7200     115
147.7400     129
147.7600     140
147.7800     142
147.8000     109
147.8200      67
147.8400      57
147.8600      58
147.8800      57
147.9000      56
147.9200      58
147.9400      65
147.9600      86
147.9800     105
148.0000      94
148.0200      72
148.0400      58
148.0600      53
148.0800      73
148.1000      97
148.1200      88
148.1400      67
148.1600      52
148.1800      44
148.2000      51
148.2200      63
148.2400      67
148.2600      68
148.2800      77
148.3000      83
148.3200      56
148.3400      23
148.3600      27
148.3800      43
148.4000      50
148.4200      56
148.4400      71
148.4600      91
148.4800     126
148.5000     152
148.5200     106
148.5400      43
148.5600      32
148.5800      42
148.6000      53
148.6200      66
148.6400      81
148.6600      94
148.6800      90
148.7000      80
148.7200      67
148.7400      58
148.7600      77
148.7800     101
148.8000      97
148.8200      85
148.8400      96
148.8600     110
148.8800      94
148.9000      73
148.9200      87
148.9400     110
148.9600     105
148.9800      89
149.0000      75
149.0200      64
149.0400      68
149.0600      78
149.0800      88
149.1000      98
149.1200     109
149.1400     113
149.1600      76
149.1800      34
149.2000      53
149.2200      89
149.2400      85
149.2600      70
149.2800      80
149.3000      98
149.3200     103
149.3400     104
149.3600     112
149.3800     117
149.4000     102
149.4200      79
149.4400      63
149.4600      51
149.4800      50
149.5000      57
149.5200      79
149.5400     100
149.5600      81
149.5800      51
149.6000      41
149.6200      45
149.6400      81
149.6600     120
149.6800     112
149.7000      87
149.7200      69
149.7400      54
149.7600      44
149.7800      42
149.8000      68
149.8200      99
149.8400      97
149.8600      84
149.8800      88
149.9000      95
149.9200      90
149.9400      78
149.9600      58
149.9800      42
150.0000      66
150.0200      99
150.0400     100
150.0600      92
150.0800     103
150.1000     111
150.1200      74
150.1400      27
150.1600      28
150.1800      48
150.2000      68
150.2200      86
150.2400      94
150.2600      96
150.2800      87
150.3000      79
150.3200     106
150.3400     138
150.3600     130
150.3800     107
150.4000      89
150.4200      81
150.4400     116
150.4600     153
150.4800     115
150.5000      58
150.5200      55
150.5400      70
150.5600      75
150.5800      75
150.6000      77
150.6200      77
150.6400      68
150.6600      61
150.6800      76
150.7000      95
150.7200      87
150.7400      74
150.7600      88
150.7800     105
150.8000      85
150.8200      58
150.8400      63
150.8600      76
150.8800      67
150.9000      53
150.9200      59
150.9400      73
150.9600      85
150.9800      95
151.0000      90
151.0200      80
151.0400      67
151.0600      58
151.0800      79
151.1000     103
151.1200      87
151.1400      57
151.1600      37
151.1800      25
151.2000      35
151.2200      54
151.2400      78
151.2600     101
151.2800     109
151.3000     108
151.3200      93
151.3400      76
151.3600      69
151.3800      66
151.4000      58
151.4200      51
151.4400      56
151.4600      66
151.4800      77
151.5000      88
151.5200      91
151.5400      90
151.5600      84
151.5800      75
151.6000      64
151.6200      58
151.6400      81
151.6600     109
151.6800     112
151.7000     102
151.7200      80
151.7400      56
151.7600      44
151.7800      40
151.8000      58
151.8200      84
151.8400     110
151.8600     128
151.8800     109
151.9000      82
151.9200      87
151.9400      99
151.9600      82
151.9800      58
152.0000      53
152.0200      56
152.0400      64
152.0600      72
152.0800      73
152.1000      69
152.1200      55
152.1400      41
152.1600      45
152.1800      56
152.2000      62
152.2200      64
152.2400      55
152.2600      40
152.2800      25
152.3000      17
152.3200      49
152.3400      90
152.3600      99
152.3800      92
152.4000      65
152.4200      37
152.4400      39
152.4600      50
152.4800      46
152.5000      41
152.5200      61
152.5400      89
152.5600     104
152.5800     108
152.6000      85
152.6200      55
152.6400      47
152.6600      45
152.6800      33
152.7000      22
152.7200      39
152.7400      63
152.7600      64
152.7800      63
152.8000      99
152.8200     136
152.8400     109
152.8600      68
152.8800      81
152.9000     108
152.9200     105
152.9400      87
152.9600      62
152.9800      39
153.0000      41
153.0200      55
153.0400      74
153.0600      91
153.0800      85
153.1000      72
153.1200      74
153.1400      79
153.1600      67
153.1800      55
153.2000      73
153.2200      97
153.2400      91
153.2600      75
153.2800      71
153.3000      71
153.3200      71
153.3400      70
153.3600      64
153.3800      60
153.4000      79
153.4200      99
153.4400      78
153.4600      49
153.4800      70
153.5000     102
153.5200      94
153.5400      72
153.5600      60
153.5800      55
153.6000      68
153.6200      85
153.6400      86
153.6600      82
153.6800      91
153.7000     101
153.7200      89
153.7400      70
153.7600      56
153.7800      47
153.8000      50
153.8200      59
153.8400      76
153.8600      91
153.8800      80
153.9000      60
153.9200      53
153.9400      49
153.9600      37
153.9800      25
154.0000      35
154.0200      53
154.0400      72
154.0600      89
154.0800      86
154.1000      76
154.1200      68
154.1400      62
154.1600      64
154.1800      72
154.2000      90
154.2200     109
154.2400     110
154.2600      99
154.2800      66
154.3000      32
154.3200      35
154.3400      49
154.3600      48
154.3800      45
154.4000      67
154.4200      93
154.4400      87
154.4600      74
154.4800      88
154.5000     109
154.5200     118
154.5400     118
154.5600      97
154.5800      67
154.6000      38
154.6200      15
154.6400      12
154.6600      21
154.6800      43
154.7000      68
154.7200      75
154.7400      79
154.7600     103
154.7800     126
154.8000     106
154.8200      71
154.8400      56
154.8600      51
154.8800      64
154.9000      84
154.9200     103
154.9400     119
154.9600     125
154.9800     120
155.0000      83
155.0200      45
155.0400      67
155.0600     106
155.0800     112
155.1000     107
155.1200     120
155.1400     136
155.1600     129
155.1800     111
155.2000      86
155.2200      64
155.2400      67
155.2600      77
155.2800      67
155.3000      51
155.3200      45
155.3400      45
155.3600      53
155.3800      63
155.4000      60
155.4200      56
155.4400      72
155.4600      92
155.4800      92
155.5000      83
155.5200      71
155.5400      61
155.5600      71
155.5800      84
155.6000      73
155.6200      57
155.6400      60
155.6600      69
155.6800      76
155.7000      82
155.7200      86
155.7400      90
155.7600      91
155.7800      91
155.8000      89
155.8200      87
155.8400      83
155.8600      79
155.8800      74
155.9000      68
155.9200      63
155.9400      61
155.9600      69
155.9800      80
156.0000      81
156.0200      82
156.0400      95
156.0600     110
156.0800     111
156.1000     103
156.1200      74
156.1400      42
156.1600      43
156.1800      57
156.2000      68
156.2200      77
156.2400      81
156.2600      81
156.2800      74
156.3000      63
156.3200      44
156.3400      28
156.3600      42
156.3800      68
156.4000      94
156.4200     113
156.4400      98
156.4600      75
156.4800      76
156.5000      86
156.5200      96
156.5400     103
156.5600      95
156.5800      84
156.6000      88
156.6200      95
156.6400      90
156.6600      87
156.6800     117
156.7000     152
156.7200     142
156.7400     113
156.7600      74
156.7800      41
156.8000      50
156.8200      72
156.8400      75
156.8600      72
156.8800      69
156.9000      68
156.9200      74
156.9400      80
156.9600      76
156.9800      63
157.0000      28
157.0200      -4
157.0400      16
157.0600      51
157.0800      52
157.1000      40
157.1200      28
157.1400      23
157.1600      53
157.1800      86
157.2000      64
157.2200      31
157.2400      52
157.2600      82
157.2800      57
157.3000      18
157.3200      24
157.3400      47
157.3600      68
157.3800      84
157.4000      79
157.4200      66
157.4400      59
157.4600      57
157.4800      64
157.5000      72
157.5200      71
157.5400      66
157.5600      51
157.5800      39
157.6000      55
157.6200      80
157.6400      85
157.6600      84
157.6800      86
157.7000      88
157.7200      79
157.7400      63
157.7600      38
157.7800      15
157.8000      16
157.8200      25
157.8400      32
157.8600      40
157.8800      58
157.9000      77
157.9200      79
157.9400      76
157.9600      78
157.9800      79
158.0000      65
158.0200      49
158.0400      48
158.0600      54
158.0800      62
158.1000      73
158.1200      97
158.1400     120
158.1600     110
158.1800      85
158.2000      58
158.2200      37
158.2400      48
158.2600      70
158.2800      84
158.3000      92
158.3200      91
158.3400      89
158.3600      92
158.3800      96
158.4000      90
158.4200      84
158.4400      98
158.4600     114
158.4800      98
158.5000      72
158.5200      55
158.5400      45
158.5600      55
158.5800      68
158.6000      57
158.6200      41
158.6400      44
158.6600      54
158.6800      69
158.7000      82
158.7200      82
158.7400      75
158.7600      64
158.7800      54
158.8000      51
158.8200      48
158.8400      32
158.8600      16
158.8800      33
158.9000      59
158.9200      63
158.9400      61
158.9600      64
158.9800      71
159.0000      85
159.0200      97
159.0400      91
159.0600      78
159.0800      70
159.1000      64
159.1200      58
159.1400      51
159.1600      44
159.1800      37
159.2000      37
159.2200      46
159.2400      90
159.2600     136
159.2800     127
159.3000      93
159.3200      47
159.3400       8
159.3600      26
159.3800      60
159.4000      62
159.4200      56
159.4400      72
159.4600      89
159.4800      73
159.5000      46
159.5200      37
159.5400      36
159.5600      40
159.5800      45
159.6000      42
159.6200      40
159.6400      58
159.6600      78
159.6800      71
159.7000      58
159.7200      67
159.7400      80
159.7600      69
159.7800      53
159.8000      54
159.8200      59
159.8400      51
159.8600      38
159.8800      35
159.9000      35
159.9200      37
159.9400      40
159.9600      53
159.9800      65
160.0000      59
160.0200      48
160.0400      52
160.0600      61
160.0800      70
160.1000      80
160.1200     100
160.1400     116
160.1600      94
160.1800      58
160.2000      35
160.2200      21
160.2400      27
160.2600      41
160.2800      52
160.3000      60
160.3200      59
160.3400      59
160.3600      74
160.3800      91
160.4000      83
160.4200      66
160.4400      56
160.4600      50
160.4800      54
160.5000      61
160.5200      61
160.5400      62
160.5600      75
160.5800      88
160.6000      79
160.6200      62
160.6400      48
160.6600      41
160.6800      56
160.7000      75
160.7200      72
160.7400      59
160.7600      41
160.7800      24
160.8000      21
160.8200      22
160.8400      18
160.8600      17
160.8800      44
160.9000      77
160.9200      83
160.9400      78
160.9600      63
160.9800      46
161.0000      36
161.0200      29
161.0400      29
161.0600      31
161.0800      38
161.1000      46
161.1200      57
161.1400      66
161.1600      57
161.1800      46
161.2000      63
161.2200      84
161.2400      67
161.2600      42
161.2800      54
161.3000      75
161.3200      71
161.3400      57
161.3600      43
161.3800      31
161.4000      34
161.4200      39
161.4400      29
161.4600      17
161.4800      23
161.5000      36
161.5200      42
161.5400      46
161.5600      45
161.5800      43
161.6000      39
161.6200      39
161.6400      58
161.6600      77
161.6800      64
161.7000      44
161.7200      51
161.7400      64
161.7600      57
161.7800      43
161.8000      41
161.8200      42
161.8400      43
161.8600      44
161.8800      52
161.9000      59
161.9200      56
161.9400      47
161.9600      36
161.9800      29