File: XRD_Tool/log/LDA_sample_name_56789_Psi-24_20180623-130404.txt
138.0000      76
138.0200     106
138.0400     116
138.0600     120
138.0800     131
138.1000     141
138.1200     129
138.1400     112
138.1600     112
138.1800     116
138.2000     112
138.2200     106
138.2400     111
138.2600     118
138.2800     110
138.3000     100
138.3200     110
138.3400     124
138.3600     115
138.3800      94
138.4000      61
138.4200      29
138.4400      22
138.4600      30
138.4800      56
138.5000      85
138.5200      86
138.5400      81
138.5600      99
138.5800     119
138.6000      99
138.6200      70
138.6400      76
138.6600      93
138.6800      95
138.7000      89
138.7200      75
138.7400      60
138.7600      60
138.7800      67
138.8000      82
138.8200      95
138.8400      80
138.8600      59
138.8800      65
138.9000      80
138.9200      90
138.9400      96
138.9600      95
138.9800      92
139.0000      92
139.0200      94
139.0400      91
139.0600      89
139.0800      97
139.1000     104
139.1200      84
139.1400      60
139.1600      65
139.1800      80
139.2000      93
139.2200     100
139.2400      79
139.2600      54
139.2800      67
139.3000      91
139.3200      95
139.3400      92
139.3600      91
139.3800      91
139.4000      94
139.4200      96
139.4400      86
139.4600      72
139.4800      57
139.5000      44
139.5200      46
139.5400      58
139.5600      93
139.5800     127
139.6000     109
139.6200      75
139.6400      61
139.6600      54
139.6800      41
139.7000      28
139.7200      35
139.7400      50
139.7600      72
139.7800      93
139.8000     100
139.8200      95
139.8400      55
139.8600      13
139.8800      31
139.9000      68
139.9200      79
139.9400      79
139.9600      84
139.9800      90
140.0000      99
140.0200     104
140.0400      79
140.0600      49
140.0800      49
140.1000      59
140.1200      57
140.1400      55
140.1600      70
140.1800      90
140.2000     102
140.2200     109
140.2400     116
140.2600     117
140.2800      96
140.3000      69
140.3200      57
140.3400      52
140.3600      49
140.3800      52
140.4000      83
140.4200     117
140.4400     110
140.4600      88
140.4800      76
140.5000      68
140.5200      60
140.5400      58
140.5600      87
140.5800     118
140.6000      94
140.6200      59
140.6400      74
140.6600     103
140.6800      95
140.7000      75
140.7200      65
140.7400      57
140.7600      36
140.7800      18
140.8000      38
140.8200      66
140.8400      56
140.8600      36
140.8800      48
140.9000      69
140.9200      80
140.9400      85
140.9600      87
140.9800      89
141.0000     104
141.0200     119
141.0400     109
141.0600      91
141.0800      83
141.1000      79
141.1200      77
141.1400      75
141.1600      73
141.1800      72
141.2000      74
141.2200      79
141.2400      91
141.2600     100
141.2800      86
141.3000      68
141.3200      80
141.3400      99
141.3600      96
141.3800      85
141.4000      79
141.4200      74
141.4400      64
141.4600      54
141.4800      52
141.5000      57
141.5200      72
141.5400      87
141.5600      79
141.5800      61
141.6000      43
141.6200      32
141.6400      54
141.6600      87
141.6800     107
141.7000     114
141.7200      86
141.7400      51
141.7600      53
141.7800      66
141.8000      65
141.8200      57
141.8400      38
141.8600      21
141.8800      39
141.9000      64
141.9200      54
141.9400      36
141.9600      49
141.9800      72
142.0000      79
142.0200      81
142.0400      94
142.0600     108
142.0800     101
142.1000      87
142.1200      88
142.1400      93
142.1600      96
142.1800      99
142.2000     102
142.2200     103
142.2400      91
142.2600      75
142.2800      67
142.3000      63
142.3200      57
142.3400      53
142.3600      58
142.3800      64
142.4000      65
142.4200      65
142.4400      77
142.4600      88
142.4800      74
142.5000      58
142.5200      82
142.5400     114
142.5600     107
142.5800      90
142.6000      97
142.6200     109
142.6400     102
142.6600      92
142.6800      99
142.7000     108
142.7200      95
142.7400      76
142.7600      72
142.7800      72
142.8000      59
142.8200      45
142.8400      53
142.8600      66
142.8800      65
142.9000      64
142.9200      83
142.9400     105
142.9600      95
142.9800      74
143.0000      58
143.0200      51
143.0400      78
143.0600     114
143.0800     135
143.1000     140
143.1200     103
143.1400      58
143.1600      58
143.1800      76
143.2000      91
143.2200      99
143.2400      80
143.2600      58
143.2800      75
143.3000     101
143.3200      97
143.3400      83
143.3600      80
143.3800      82
143.4000      83
143.4200      84
143.4400      90
143.4600      97
143.4800     102
143.5000     105
143.5200     100
143.5400      91
143.5600      82
143.5800      73
143.6000      67
143.6200      65
143.6400      71
143.6600      80
143.6800      81
143.7000      81
143.7200      93
143.7400     107
143.7600     112
143.7800     110
143.8000      83
143.8200      52
143.8400      43
143.8600      45
143.8800      57
143.9000      70
143.9200      71
143.9400      67
143.9600      60
143.9800      57
144.0000      84
144.0200     112
144.0400      88
144.0600      49
144.0800      35
144.1000      34
144.1200      50
144.1400      71
144.1600      87
144.1800      98
144.2000      94
144.2200      84
144.2400      77
144.2600      70
144.2800      53
144.3000      40
144.3200      59
144.3400      90
144.3600     116
144.3800     131
144.4000     106
144.4200      69
144.4400      57
144.4600      56
144.4800      58
144.5000      62
144.5200      64
144.5400      64
144.5600      54
144.5800      45
144.6000      56
144.6200      75
144.6400      87
144.6600      93
144.6800      79
144.7000      59
144.7200      48
144.7400      43
144.7600      56
144.7800      73
144.8000      75
144.8200      72
144.8400      72
144.8600      74
144.8800      75
144.9000      74
144.9200      73
144.9400      71
144.9600      72
144.9800      74
145.0000      76
145.0200      78
145.0400      80
145.0600      80
145.0800      69
145.1000      56
145.1200      58
145.1400      63
145.1600      56
145.1800      46
145.2000      48
145.2200      54
145.2400      62
145.2600      65
145.2800      44
145.3000      23
145.3200      44
145.3400      76
145.3600      76
145.3800      65
145.4000      59
145.4200      55
145.4400      48
145.4600      43
145.4800      56
145.5000      71
145.5200      59
145.5400      41
145.5600      42
145.5800      50
145.6000      59
145.6200      69
145.6400      76
145.6600      83
145.6800      93
145.7000      99
145.7200      75
145.7400      46
145.7600      50
145.7800      68
145.8000      86
145.8200      99
145.8400      84
145.8600      61
145.8800      53
145.9000      51
145.9200      51
145.9400      51
145.9600      56
145.9800      63
146.0000      78
146.0200      91
146.0400      78
146.0600      57
146.0800      51
146.1000      52
146.1200      61
146.1400      71
146.1600      68
146.1800      62
146.2000      67
146.2200      75
146.2400      73
146.2600      68
146.2800      68
146.3000      70
146.3200      67
146.3400      67
146.3600      85
146.3800     106
146.4000     102
146.4200      88
146.4400      73
146.4600      58
146.4800      51
146.5000      46
146.5200      36
146.5400      31
146.5600      58
146.5800      91
146.6000      92
146.6200      84
146.6400      94
146.6600     107
146.6800      95
146.7000      77
146.7200      79
146.7400      89
146.7600      99
146.7800     107
146.8000     104
146.8200      97
146.8400      95
146.8600      95
146.8800      96
146.9000      96
146.9200      81
146.9400      67
146.9600      81
146.9800     102
147.0000      97
147.0200      82
147.0400      75
147.0600      72
147.0800      71
147.1000      73
147.1200      88
147.1400     104
147.1600     102
147.1800      92
147.2000      85
147.2200      81
147.2400      87
147.2600      97
147.2800     102
147.3000     101
147.3200      77
147.3400      48
147.3600      47
147.3800      58
147.4000      71
147.4200      81
147.4400      69
147.4600      54
147.4800      64
147.5000      81
147.5200      80
147.5400      75
147.5600      85
147.5800      98
147.6000      97
147.6200      91
147.6400      85
147.6600      79
147.6800      70
147.7000      60
147.7200      50
147.7400      45
147.7600      65
147.7800      92
147.8000     102
147.8200     102
147.8400      82
147.8600      58
147.8800      54
147.9000      58
147.9200      60
147.9400      62
147.9600      61
147.9800      59
148.0000      60
148.0200      62
148.0400      64
148.0600      66
148.0800      67
148.1000      66
148.1200      63
148.1400      58
148.1600      50
148.1800      44
148.2000      60
148.2200      81
148.2400      90
148.2600      94
148.2800      95
148.3000      96
148.3200     105
148.3400     114
148.3600     105
148.3800      87
148.4000      59
148.4200      35
148.4400      52
148.4600      83
148.4800      96
148.5000      98
148.5200      82
148.5400      58
148.5600      37
148.5800      22
148.6000      34
148.6200      53
148.6400      55
148.6600      54
148.6800      65
148.7000      79
148.7200      84
148.7400      85
148.7600      80
148.7800      75
148.8000      88
148.8200     104
148.8400     102
148.8600      92
148.8800      80
148.9000      71
148.9200      74
148.9400      80
148.9600      76
148.9800      68
149.0000      65
149.0200      62
149.0400      52
149.0600      46
149.0800      67
149.1000      92
149.1200      85
149.1400      75
149.1600     113
149.1800     158
149.2000     137
149.2200      93
149.2400      70
149.2600      61
149.2800      77
149.3000      99
149.3200     101
149.3400      93
149.3600      70
149.3800      44
149.4000      30
149.4200      23
149.4400      29
149.4600      45
149.4800      79
149.5000     113
149.5200     104
149.5400      83
149.5600      89
149.5800     102
149.6000     101
149.6200      95
149.6400      88
149.6600      81
149.6800      84
149.7000      87
149.7200      77
149.7400      65
149.7600      76
149.7800      87
149.8000      55
149.8200      14
149.8400      20
149.8600      42
149.8800      54
149.9000      59
149.9200      54
149.9400      48
149.9600      62
149.9800      81
150.0000      87
150.0200      84
150.0400      69
150.0600      51
150.0800      43
150.1000      44
150.1200      70
150.1400     100
150.1600      98
150.1800      83
150.2000      62
150.2200      41
150.2400      36
150.2600      40
150.2800      54
150.3000      70
150.3200      71
150.3400      68
150.3600      68
150.3800      69
150.4000      60
150.4200      52
150.4400      66
150.4600      85
150.4800      91
150.5000      89
150.5200      82
150.5400      73
150.5600      71
150.5800      69
150.6000      62
150.6200      56
150.6400      70
150.6600      86
150.6800      75
150.7000      57
150.7200      56
150.7400      60
150.7600      57
150.7800      50
150.8000      37
150.8200      31
150.8400      78
150.8600     131
150.8800     107
150.9000      60
150.9200      48
150.9400      50
150.9600      49
150.9800      45
151.0000      33
151.0200      21
151.0400      32
151.0600      47
151.0800      37
151.1000      22
151.1200      32
151.1400      50
151.1600      60
151.1800      67
151.2000      82
151.2200      95
151.2400      80
151.2600      58
151.2800      58
151.3000      64
151.3200      63
151.3400      60
151.3600      64
151.3800      69
151.4000      67
151.4200      63
151.4400      61
151.4600      56
151.4800      39
151.5000      27
151.5200      60
151.5400     102
151.5600      94
151.5800      70
151.6000      63
151.6200      62
151.6400      57
151.6600      52
151.6800      47
151.7000      43
151.7200      37
151.7400      32
151.7600      32
151.7800      35
151.8000      40
151.8200      47
151.8400      57
151.8600      67
151.8800      69
151.9000      65
151.9200      54
151.9400      44
151.9600      54
151.9800      71
152.0000      80
152.0200      84
152.0400      81
152.0600      76
152.0800      75
152.1000      74
152.1200      69
152.1400      66
152.1600      75
152.1800      85
152.2000      75
152.2200      58
152.2400      48
152.2600      40
152.2800      37
152.3000      36
152.3200      38
152.3400      44
152.3600      57
152.3800      71
152.4000      76
152.4200      74
152.4400      52
152.4600      28
152.4800      34
152.5000      49
152.5200      48
152.5400      43
152.5600      56
152.5800      71
152.6000      61
152.6200      47
152.6400      61
152.6600      85
152.6800      94
152.7000      99
152.7200     106
152.7400     110
152.7600      94
152.7800      73
152.8000      68
152.8200      68
152.8400      57
152.8600      47
152.8800      72
152.9000     104
152.9200     104
152.9400      92
152.9600      80
152.9800      70
153.0000      72
153.0200      78
153.0400      84
153.0600      90
153.0800      98
153.1000     103
153.1200      93
153.1400      81
153.1600      90
153.1800     102
153.2000      79
153.2200      52
153.2400      72
153.2600     100
153.2800      80
153.3000      45
153.3200      38
153.3400      44
153.3600      58
153.3800      72
153.4000      65
153.4200      55
153.4400      78
153.4600     108
153.4800     105
153.5000      90
153.5200      81
153.5400      75
153.5600      68
153.5800      60
153.6000      55
153.6200      50
153.6400      38
153.6600      31
153.6800      59
153.7000      93
153.7200      82
153.7400      56
153.7600      38
153.7800      27
153.8000      28
153.8200      35
153.8400      49
153.8600      64
153.8800      77
153.9000      91
153.9200     115
153.9400     135
153.9600     115
153.9800      83
154.0000      68
154.0200      61
154.0400      59
154.0600      59
154.0800      60
154.1000      66
154.1200      87
154.1400     105
154.1600      73
154.1800      30
154.2000      32
154.2200      49
154.2400      51
154.2600      48
154.2800      52
154.3000      58
154.3200      64
154.3400      68
154.3600      60
154.3800      47
154.4000      29
154.4200      15
154.4400      31
154.4600      55
154.4800      56
154.5000      49
154.5200      50
154.5400      55
154.5600      63
154.5800      69
154.6000      52
154.6200      30
154.6400      26
154.6600      30
154.6800      31
154.7000      30
154.7200      27
154.7400      24
154.7600      23
154.7800      25
154.8000      37
154.8200      51
154.8400      58
154.8600      62
154.8800      68
154.9000      73
154.9200      71
154.9400      70
154.9600      84
154.9800     103
155.0000     115
155.0200     121
155.0400     107
155.0600      85
155.0800      60
155.1000      37
155.1200      31
155.1400      31
155.1600      32
155.1800      37
155.2000      52
155.2200      68
155.2400      62
155.2600      52
155.2800      59
155.3000      70
155.3200      64
155.3400      53
155.3600      45
155.3800      41
155.4000      42
155.4200      46
155.4400      47
155.4600      46
155.4800      41
155.5000      34
155.5200      22
155.5400      14
155.5600      36
155.5800      65
155.6000      69
155.6200      65
155.6400      71
155.6600      78
155.6800      69
155.7000      55
155.7200      51
155.7400      52
155.7600      58
155.7800      67
155.8000      81
155.8200      92
155.8400      83
155.8600      70
155.8800      80
155.9000      94
155.9200      75
155.9400      47
155.9600      39
155.9800      42
156.0000      61
156.0200      82
156.0400      77
156.0600      62
156.0800      52
156.1000      43
156.1200      30
156.1400      22
156.1600      41
156.1800      65
156.2000      59
156.2200      43
156.2400      40
156.2600      44
156.2800      58
156.3000      71
156.3200      54
156.3400      30
156.3600      23
156.3800      24
156.4000      30
156.4200      39
156.4400      53
156.4600      63
156.4800      48
156.5000      26
156.5200      26
156.5400      33
156.5600      36
156.5800      39
156.6000      46
156.6200      52
156.6400      49
156.6600      44
156.6800      44
156.7000      48
156.7200      57
156.7400      67
156.7600      67
156.7800      62
156.8000      52
156.8200      41
156.8400      37
156.8600      35
156.8800      31
156.9000      28
156.9200      30
156.9400      34
156.9600      40
156.9800      43
157.0000      33
157.0200      23
157.0400      48
157.0600      79
157.0800      75
157.1000      58
157.1200      44
157.1400      37
157.1600      55
157.1800      78
157.2000      76
157.2200      65
157.2400      61
157.2600      60
157.2800      67
157.3000      77
157.3200      84
157.3400      87
157.3600      73
157.3800      54
157.4000      40
157.4200      30
157.4400      30
157.4600      33
157.4800      28
157.5000      25
157.5200      48
157.5400      75
157.5600      62
157.5800      38
157.6000      32
157.6200      34
157.6400      31
157.6600      32
157.6800      56
157.7000      84
157.7200      79
157.7400      64
157.7600      66
157.7800      74
157.8000      82
157.8200      84
157.8400      61
157.8600      35
157.8800      52
157.9000      80
157.9200      78
157.9400      65
157.9600      56
157.9800      49
158.0000      52
158.0200      57
158.0400      57
158.0600      53
158.0800      42
158.1000      34
158.1200      55
158.1400      82
158.1600      84
158.1800      76
158.2000      69
158.2200      65
158.2400      66
158.2600      70
158.2800      72
158.3000      73
158.3200      66
158.3400      55
158.3600      42
158.3800      29
158.4000      21
158.4200      15
158.4400       9
158.4600       6
158.4800      15
158.5000      30
158.5200      48
158.5400      67
158.5600      78
158.5800      85
158.6000      87
158.6200      83
158.6400      60
158.6600      39
158.6800      60
158.7000      94
158.7200     108
158.7400     106
158.7600      67
158.7800      24
158.8000      31
158.8200      57
158.8400      75
158.8600      87
158.8800      89
158.9000      84
158.9200      62
158.9400      43
158.9600      67
158.9800      99
159.0000      78
159.0200      44
159.0400      48
159.0600      67
159.0800      78
159.1000      83
159.1200      74
159.1400      61
159.1600      48
159.1800      41
159.2000      59
159.2200      82
159.2400      77
159.2600      63
159.2800      60
159.3000      64
159.3200      78
159.3400      92
159.3600      83
159.3800      66
159.4000      54
159.4200      50
159.4400      76
159.4600     105
159.4800      92
159.5000      64
159.5200      46
159.5400      36
159.5600      45
159.5800      56
159.6000      42
159.6200      25
159.6400      43
159.6600      70
159.6800      75
159.7000      69
159.7200      53
159.7400      35
159.7600      29
159.7800      30
159.8000      48
159.8200      71
159.8400      89
159.8600     100
159.8800      89
159.9000      69
159.9200      49
159.9400      34
159.9600      41
159.9800      53
160.0000      45
160.0200      33
160.0400      44
160.0600      61
160.0800      65
160.1000      61
160.1200      50
160.1400      42
160.1600      59
160.1800      79
160.2000      61
160.2200      34
160.2400      40
160.2600      61
160.2800      85
160.3000     103
160.3200      76
160.3400      37
160.3600      21
160.3800      21
160.4000      48
160.4200      76
160.4400      54
160.4600      20
160.4800      26
160.5000      46
160.5200      54
160.5400      56
160.5600      48
160.5800      38
160.6000      40
160.6200      43
160.6400      29
160.6600      15
160.6800      31
160.7000      58
160.7200      82
160.7400      95
160.7600      65
160.7800      24
160.8000      23
160.8200      35
160.8400      37
160.8600      37
160.8800      50
160.9000      67
160.9200      74
160.9400      73
160.9600      47
160.9800      19
161.0000      33
161.0200      60
161.0400      70
161.0600      73
161.0800      71
161.1000      66
161.1200      54
161.1400      41
161.1600      33
161.1800      28
161.2000      23
161.2200      21
161.2400      27
161.2600      34
161.2800      26
161.3000      14
161.3200      11
161.3400      12
161.3600      23
161.3800      38
161.4000      56
161.4200      71
161.4400      61
161.4600      43
161.4800      32
161.5000      28
161.5200      47
161.5400      71
161.5600      72
161.5800      64
161.6000      57
161.6200      53
161.6400      59
161.6600      65
161.6800      46
161.7000      22
161.7200      20
161.7400      25
161.7600      27
161.7800      32
161.8000      65
161.8200      99
161.8400      85
161.8600      51
161.8800      20
161.9000      -1
161.9200      11
161.9400      37
161.9600      53
161.9800      61