File: XRD_Tool/log/LDA_sample_name_56789_Psi-24_20180623-130837.txt
138.0000     385
138.0200     379
138.0400     405
138.0600     432
138.0800     405
138.1000     371
138.1200     404
138.1400     449
138.1600     419
138.1800     371
138.2000     386
138.2200     425
138.2400     456
138.2600     473
138.2800     438
138.3000     393
138.3200     400
138.3400     429
138.3600     466
138.3800     496
138.4000     473
138.4200     441
138.4400     467
138.4600     501
138.4800     453
138.5000     390
138.5200     412
138.5400     459
138.5600     456
138.5800     435
138.6000     417
138.6200     415
138.6400     478
138.6600     549
138.6800     522
138.7000     471
138.7200     500
138.7400     546
138.7600     525
138.7800     486
138.8000     492
138.8200     519
138.8400     560
138.8600     596
138.8800     582
138.9000     557
138.9200     577
138.9400     596
138.9600     525
138.9800     433
139.0000     421
139.0200     441
139.0400     463
139.0600     488
139.0800     531
139.1000     573
139.1200     577
139.1400     565
139.1600     551
139.1800     545
139.2000     576
139.2200     611
139.2400     592
139.2600     553
139.2800     518
139.3000     502
139.3200     579
139.3400     676
139.3600     686
139.3800     667
139.4000     670
139.4200     680
139.4400     683
139.4600     679
139.4800     650
139.5000     620
139.5200     632
139.5400     650
139.5600     618
139.5800     583
139.6000     633
139.6200     704
139.6400     708
139.6600     685
139.6800     654
139.7000     631
139.7200     664
139.7400     716
139.7600     743
139.7800     751
139.8000     707
139.8200     653
139.8400     644
139.8600     655
139.8800     671
139.9000     692
139.9200     725
139.9400     756
139.9600     757
139.9800     736
140.0000     672
140.0200     613
140.0400     672
140.0600     763
140.0800     776
140.1000     761
140.1200     761
140.1400     762
140.1600     743
140.1800     726
140.2000     764
140.2200     811
140.2400     793
140.2600     759
140.2800     773
140.3000     804
140.3200     820
140.3400     825
140.3600     803
140.3800     784
140.4000     825
140.4200     871
140.4400     815
140.4600     736
140.4800     737
140.5000     763
140.5200     751
140.5400     735
140.5600     777
140.5800     838
140.6000     871
140.6200     881
140.6400     832
140.6600     767
140.6800     732
140.7000     718
140.7200     744
140.7400     784
140.7600     814
140.7800     831
140.8000     803
140.8200     770
140.8400     799
140.8600     841
140.8800     828
140.9000     802
140.9200     828
140.9400     850
140.9600     752
140.9800     641
141.0000     706
141.0200     817
141.0400     800
141.0600     740
141.0800     723
141.1000     724
141.1200     725
141.1400     724
141.1600     705
141.1800     690
141.2000     730
141.2200     778
141.2400     757
141.2600     721
141.2800     742
141.3000     786
141.3200     833
141.3400     866
141.3600     823
141.3800     762
141.4000     769
141.4200     794
141.4400     771
141.4600     727
141.4800     674
141.5000     628
141.5200     632
141.5400     656
141.5600     675
141.5800     695
141.6000     725
141.6200     753
141.6400     753
141.6600     745
141.6800     757
141.7000     761
141.7200     687
141.7400     600
141.7600     611
141.7800     661
141.8000     708
141.8200     742
141.8400     717
141.8600     678
141.8800     684
141.9000     702
141.9200     687
141.9400     663
141.9600     662
141.9800     665
142.0000     643
142.0200     620
142.0400     639
142.0600     664
142.0800     634
142.1000     596
142.1200     630
142.1400     681
142.1600     682
142.1800     666
142.2000     670
142.2200     671
142.2400     615
142.2600     558
142.2800     606
142.3000     682
142.3200     686
142.3400     663
142.3600     642
142.3800     626
142.4000     630
142.4200     636
142.4400     614
142.4600     591
142.4800     623
142.5000     668
142.5200     671
142.5400     657
142.5600     643
142.5800     630
142.6000     619
142.6200     608
142.6400     595
142.6600     582
142.6800     574
142.7000     569
142.7200     566
142.7400     571
142.7600     614
142.7800     655
142.8000     609
142.8200     546
142.8400     565
142.8600     611
142.8800     630
142.9000     636
142.9200     631
142.9400     620
142.9600     607
142.9800     589
143.0000     553
143.0200     513
143.0400     495
143.0600     490
143.0800     510
143.1000     531
143.1200     508
143.1400     477
143.1600     490
143.1800     517
143.2000     529
143.2200     536
143.2400     551
143.2600     564
143.2800     552
143.3000     525
143.3200     473
143.3400     424
143.3600     437
143.3800     467
143.4000     457
143.4200     439
143.4400     461
143.4600     485
143.4800     439
143.5000     389
143.5200     460
143.5400     551
143.5600     497
143.5800     405
143.6000     408
143.6200     445
143.6400     454
143.6600     443
143.6800     390
143.7000     331
143.7200     327
143.7400     344
143.7600     358
143.7800     372
143.8000     396
143.8200     415
143.8400     387
143.8600     344
143.8800     318
143.9000     306
143.9200     334
143.9400     377
143.9600     417
143.9800     441
144.0000     400
144.0200     343
144.0400     344
144.0600     373
144.0800     422
144.1000     467
144.1200     447
144.1400     405
144.1600     380
144.1800     365
144.2000     365
144.2200     366
144.2400     343
144.2600     317
144.2800     321
144.3000     334
144.3200     332
144.3400     328
144.3600     341
144.3800     361
144.4000     384
144.4200     396
144.4400     347
144.4600     287
144.4800     302
144.5000     339
144.5200     343
144.5400     334
144.5600     330
144.5800     325
144.6000     306
144.6200     288
144.6400     297
144.6600     313
144.6800     312
144.7000     302
144.7200     277
144.7400     255
144.7600     271
144.7800     299
144.8000     306
144.8200     303
144.8400     298
144.8600     292
144.8800     288
144.9000     283
144.9200     276
144.9400     274
144.9600     299
144.9800     323
145.0000     287
145.0200     230
145.0400     186
145.0600     159
145.0800     185
145.1000     222
145.1200     203
145.1400     175
145.1600     217
145.1800     275
145.2000     278
145.2200     267
145.2400     303
145.2600     343
145.2800     313
145.3000     268
145.3200     293
145.3400     332
145.3600     308
145.3800     268
145.4000     283
145.4200     313
145.4400     316
145.4600     308
145.4800     295
145.5000     276
145.5200     234
145.5400     192
145.5600     203
145.5800     232
145.6000     241
145.6200     247
145.6400     273
145.6600     301
145.6800     296
145.7000     279
145.7200     272
145.7400     268
145.7600     266
145.7800     262
145.8000     253
145.8200     247
145.8400     269
145.8600     296
145.8800     285
145.9000     260
145.9200     240
145.9400     224
145.9600     221
145.9800     218
146.0000     192
146.0200     160
146.0400     146
146.0600     149
146.0800     199
146.1000     253
146.1200     240
146.1400     209
146.1600     223
146.1800     248
146.2000     233
146.2200     207
146.2400     199
146.2600     197
146.2800     185
146.3000     179
146.3200     220
146.3400     263
146.3600     221
146.3800     159
146.4000     169
146.4200     204
146.4400     224
146.4600     233
146.4800     222
146.5000     207
146.5200     219
146.5400     241
146.5600     264
146.5800     284
146.6000     279
146.6200     262
146.6400     232
146.6600     199
146.6800     183
146.7000     174
146.7200     171
146.7400     169
146.7600     157
146.7800     146
146.8000     159
146.8200     180
146.8400     201
146.8600     217
146.8800     215
146.9000     204
146.9200     189
146.9400     179
146.9600     194
146.9800     222
147.0000     260
147.0200     286
147.0400     234
147.0600     164
147.0800     164
147.1000     189
147.1200     197
147.1400     201
147.1600     217
147.1800     232
147.2000     225
147.2200     213
147.2400     216
147.2600     224
147.2800     219
147.3000     209
147.3200     202
147.3400     192
147.3600     160
147.3800     137
147.4000     198
147.4200     271
147.4400     244
147.4600     195
147.4800     239
147.5000     303
147.5200     275
147.5400     225
147.5600     245
147.5800     281
147.6000     254
147.6200     205
147.6400     169
147.6600     149
147.6800     177
147.7000     226
147.7200     280
147.7400     318
147.7600     261
147.7800     182
147.8000     176
147.8200     196
147.8400     191
147.8600     184
147.8800     214
147.9000     251
147.9200     251
147.9400     238
147.9600     228
147.9800     218
148.0000     198
148.0200     182
148.0400     205
148.0600     234
148.0800     221
148.1000     190
148.1200     156
148.1400     131
148.1600     161
148.1800     205
148.2000     212
148.2200     203
148.2400     189
148.2600     175
148.2800     168
148.3000     169
148.3200     197
148.3400     222
148.3600     187
148.3800     138
148.4000     144
148.4200     169
148.4400     177
148.4600     181
148.4800     193
148.5000     208
148.5200     217
148.5400     218
148.5600     194
148.5800     163
148.6000     150
148.6200     152
148.6400     194
148.6600     240
148.6800     223
148.7000     186
148.7200     177
148.7400     183
148.7600     211
148.7800     237
148.8000     216
148.8200     184
148.8400     189
148.8600     204
148.8800     192
148.9000     174
148.9200     178
148.9400     185
148.9600     165
148.9800     145
149.0000     172
149.0200     210
149.0400     213
149.0600     199
149.0800     173
149.1000     152
149.1200     176
149.1400     211
149.1600     211
149.1800     193
149.2000     157
149.2200     121
149.2400     125
149.2600     140
149.2800     133
149.3000     121
149.3200     129
149.3400     144
149.3600     149
149.3800     154
149.4000     171
149.4200     196
149.4400     236
149.4600     264
149.4800     205
149.5000     125
149.5200     113
149.5400     128
149.5600     137
149.5800     141
149.6000     136
149.6200     129
149.6400     126
149.6600     121
149.6800     104
149.7000      91
149.7200     121
149.7400     161
149.7600     160
149.7800     142
149.8000     129
149.8200     128
149.8400     180
149.8600     234
149.8800     188
149.9000     120
149.9200     142
149.9400     191
149.9600     195
149.9800     182
150.0000     174
150.0200     168
150.0400     164
150.0600     163
150.0800     175
150.1000     187
150.1200     167
150.1400     143
150.1600     156
150.1800     180
150.2000     182
150.2200     178
150.2400     181
150.2600     182
150.2800     158
150.3000     135
150.3200     170
150.3400     222
150.3600     244
150.3800     247
150.4000     215
150.4200     176
150.4400     169
150.4600     175
150.4800     186
150.5000     193
150.5200     178
150.5400     153
150.5600     122
150.5800     100
150.6000     139
150.6200     192
150.6400     189
150.6600     167
150.6800     170
150.7000     177
150.7200     159
150.7400     140
150.7600     166
150.7800     202
150.8000     200
150.8200     181
150.8400     158
150.8600     139
150.8800     144
150.9000     154
150.9200     147
150.9400     139
150.9600     163
150.9800     194
151.0000     198
151.0200     192
151.0400     183
151.0600     174
151.0800     175
151.1000     175
151.1200     155
151.1400     131
151.1600     130
151.1800     135
151.2000     122
151.2200     108
151.2400     126
151.2600     152
151.2800     159
151.3000     159
151.3200     156
151.3400     155
151.3600     172
151.3800     192
151.4000     187
151.4200     178
151.4400     196
151.4600     214
151.4800     185
151.5000     148
151.5200     166
151.5400     198
151.5600     187
151.5800     166
151.6000     178
151.6200     200
151.6400     204
151.6600     200
151.6800     199
151.7000     193
151.7200     156
151.7400     115
151.7600     122
151.7800     145
151.8000     153
151.8200     155
151.8400     159
151.8600     158
151.8800     134
151.9000     106
151.9200     113
151.9400     131
151.9600     142
151.9800     156
152.0000     195
152.0200     231
152.0400     199
152.0600     143
152.0800     110
152.1000      94
152.1200     113
152.1400     143
152.1600     151
152.1800     153
152.2000     160
152.2200     167
152.2400     156
152.2600     140
152.2800     139
152.3000     144
152.3200     157
152.3400     173
152.3600     184
152.3800     189
152.4000     171
152.4200     144
152.4400     124
152.4600     110
152.4800     121
152.5000     135
152.5200     122
152.5400     108
152.5600     143
152.5800     183
152.6000     156
152.6200     114
152.6400     132
152.6600     164
152.6800     146
152.7000     120
152.7200     152
152.7400     197
152.7600     187
152.7800     163
152.8000     174
152.8200     200
152.8400     224
152.8600     242
152.8800     227
152.9000     200
152.9200     176
152.9400     156
152.9600     144
152.9800     140
153.0000     151
153.0200     174
153.0400     224
153.0600     265
153.0800     211
153.1000     132
153.1200     118
153.1400     127
153.1600     124
153.1800     120
153.2000     133
153.2200     149
153.2400     148
153.2600     143
153.2800     152
153.3000     167
153.3200     188
153.3400     207
153.3600     196
153.3800     178
153.4000     177
153.4200     184
153.4400     197
153.4600     207
153.4800     184
153.5000     155
153.5200     161
153.5400     178
153.5600     180
153.5800     175
153.6000     167
153.6200     152
153.6400     113
153.6600      77
153.6800     100
153.7000     139
153.7200     143
153.7400     131
153.7600     112
153.7800      92
153.8000      80
153.8200      78
153.8400     103
153.8600     130
153.8800     112
153.9000      87
153.9200     119
153.9400     168
153.9600     193
153.9800     201
154.0000     164
154.0200     118
154.0400     114
154.0600     127
154.0800     148
154.1000     163
154.1200     132
154.1400      94
154.1600     116
154.1800     152
154.2000     143
154.2200     126
154.2400     166
154.2600     211
154.2800     171
154.3000     111
154.3200     126
154.3400     164
154.3600     174
154.3800     173
154.4000     177
154.4200     182
154.4400     182
154.4600     178
154.4800     169
154.5000     158
154.5200     152
154.5400     146
154.5600     132
154.5800     120
154.6000     141
154.6200     168
154.6400     162
154.6600     144
154.6800     134
154.7000     126
154.7200     105
154.7400      85
154.7600      95
154.7800     113
154.8000     111
154.8200     105
154.8400     124
154.8600     148
154.8800     155
154.9000     153
154.9200     138
154.9400     121
154.9600     119
154.9800     126
155.0000     151
155.0200     172
155.0400     137
155.0600      90
155.0800      99
155.1000     131
155.1200     163
155.1400     185
155.1600     157
155.1800     120
155.2000     135
155.2200     163
155.2400     153
155.2600     125
155.2800      92
155.3000      68
155.3200     102
155.3400     145
155.3600     113
155.3800      58
155.4000      40
155.4200      41
155.4400      65
155.4600     100
155.4800     142
155.5000     173
155.5200     139
155.5400      92
155.5600     113
155.5800     150
155.6000     131
155.6200      96
155.6400      97
155.6600     114
155.6800     131
155.7000     143
155.7200     127
155.7400     101
155.7600      83
155.7800      74
155.8000      88
155.8200     111
155.8400     129
155.8600     142
155.8800     140
155.9000     132
155.9200     121
155.9400     111
155.9600     113
155.9800     116
156.0000     104
156.0200      87
156.0400      78
156.0600      78
156.0800     106
156.1000     135
156.1200     108
156.1400      66
156.1600      67
156.1800      85
156.2000     101
156.2200     119
156.2400     146
156.2600     165
156.2800     134
156.3000      96
156.3200     128
156.3400     171
156.3600     129
156.3800      67
156.4000      73
156.4200     100
156.4400      92
156.4600      79
156.4800     109
156.5000     150
156.5200     155
156.5400     149
156.5600     166
156.5800     184
156.6000     160
156.6200     124
156.6400     107
156.6600      97
156.6800      88
156.7000      80
156.7200      71
156.7400      64
156.7600      73
156.7800      92
156.8000     123
156.8200     150
156.8400     134
156.8600     109
156.8800     132
156.9000     165
156.9200     155
156.9400     133
156.9600     139
156.9800     154
157.0000     154
157.0200     148
157.0400     142
157.0600     135
157.0800     121
157.1000     106
157.1200      91
157.1400      86
157.1600     123
157.1800     160
157.2000     117
157.2200      52
157.2400      45
157.2600      60
157.2800      69
157.3000      79
157.3200     114
157.3400     150
157.3600     144
157.3800     122
157.4000     100
157.4200      86
157.4400     112
157.4600     148
157.4800     156
157.5000     154
157.5200     162
157.5400     171
157.5600     165
157.5800     153
157.6000     139
157.6200     126
157.6400     116
157.6600     111
157.6800     121
157.7000     136
157.7200     141
157.7400     137
157.7600     100
157.7800      65
157.8000     108
157.8200     168
157.8400     156
157.8600     123
157.8800     125
157.9000     135
157.9200     110
157.9400      74
157.9600      48
157.9800      33
158.0000      55
158.0200      88
158.0400     106
158.0600     112
158.0800      88
158.1000      60
158.1200      74
158.1400      96
158.1600      78
158.1800      55
158.2000      90
158.2200     131
158.2400      84
158.2600      17
158.2800      26
158.3000      64
158.3200      92
158.3400     108
158.3600      81
158.3800      48
158.4000      73
158.4200     115
158.4400     127
158.4600     129
158.4800     136
158.5000     146
158.5200     154
158.5400     159
158.5600     148
158.5800     132
158.6000     131
158.6200     134
158.6400     130
158.6600     124
158.6800     116
158.7000     114
158.7200     142
158.7400     167
158.7600     117
158.7800      49
158.8000      36
158.8200      45
158.8400      47
158.8600      53
158.8800      86
158.9000     119
158.9200      99
158.9400      73
158.9600     128
158.9800     194
159.0000     147
159.0200      69
159.0400      61
159.0600      75
159.0800      61
159.1000      46
159.1200      86
159.1400     139
159.1600     148
159.1800     140
159.2000     132
159.2200     133
159.2400     178
159.2600     224
159.2800     193
159.3000     135
159.3200      97
159.3400      71
159.3600      63
159.3800      65
159.4000      77
159.4200      96
159.4400     125
159.4600     156
159.4800     170
159.5000     171
159.5200     137
159.5400      94
159.5600      75
159.5800      68
159.6000      81
159.6200      99
159.6400     107
159.6600     111
159.6800     115
159.7000     119
159.7200     125
159.7400     127
159.7600     114
159.7800     102
159.8000     133
159.8200     169
159.8400     144
159.8600     105
159.8800     126
159.9000     162
159.9200     160
159.9400     148
159.9600     171
159.9800     201
160.0000     199
160.0200     187
160.0400     185
160.0600     182
160.0800     152
160.1000     120
160.1200     128
160.1400     144
160.1600     117
160.1800      77
160.2000      60
160.2200      57
160.2400      76
160.2600      99
160.2800      97
160.3000      91
160.3200     118
160.3400     151
160.3600     144
160.3800     122
160.4000     100
160.4200      82
160.4400      81
160.4600      85
160.4800      82
160.5000      81
160.5200     103
160.5400     132
160.5600     141
160.5800     140
160.6000     121
160.6200     102
160.6400     119
160.6600     141
160.6800     113
160.7000      75
160.7200      87
160.7400     111
160.7600      90
160.7800      60
160.8000      67
160.8200      86
160.8400      93
160.8600      95
160.8800      97
160.9000     102
160.9200     119
160.9400     135
160.9600     124
160.9800     103
161.0000      87
161.0200      80
161.0400     106
161.0600     138
161.0800     125
161.1000     100
161.1200      97
161.1400      99
161.1600      86
161.1800      69
161.2000      69
161.2200      74
161.2400      77
161.2600      78
161.2800      72
161.3000      68
161.3200      79
161.3400      93
161.3600      89
161.3800      79
161.4000      82
161.4200      94
161.4400     126
161.4600     156
161.4800     136
161.5000     105
161.5200     118
161.5400     139
161.5600     118
161.5800      83
161.6000      65
161.6200      58
161.6400      79
161.6600     110
161.6800     135
161.7000     149
161.7200     124
161.7400      96
161.7600     128
161.7800     170
161.8000     142
161.8200     105
161.8400     160
161.8600     227
161.8800     167
161.9000      71
161.9200      47
161.9400      53
161.9600      72
161.9800      90