File: XRD_Tool/log/LDA_sample_name_56789_Psi-0_20180623-130348.txt
138.0000     588
138.0200     604
138.0400     622
138.0600     635
138.0800     625
138.1000     604
138.1200     583
138.1400     567
138.1600     583
138.1800     609
138.2000     626
138.2200     640
138.2400     651
138.2600     654
138.2800     624
138.3000     595
138.3200     641
138.3400     708
138.3600     730
138.3800     727
138.4000     690
138.4200     651
138.4400     664
138.4600     697
138.4800     723
138.5000     748
138.5200     780
138.5400     802
138.5600     766
138.5800     721
138.6000     752
138.6200     810
138.6400     847
138.6600     867
138.6800     847
138.7000     815
138.7200     804
138.7400     801
138.7600     788
138.7800     778
138.8000     796
138.8200     814
138.8400     767
138.8600     696
138.8800     632
138.9000     591
138.9200     658
138.9400     758
138.9600     808
138.9800     835
139.0000     846
139.0200     838
139.0400     775
139.0600     718
139.0800     806
139.1000     918
139.1200     858
139.1400     760
139.1600     809
139.1800     894
139.2000     867
139.2200     813
139.2400     851
139.2600     913
139.2800     913
139.3000     887
139.3200     853
139.3400     838
139.3600     941
139.3800    1062
139.4000    1035
139.4200     962
139.4400     952
139.4600     967
139.4800     975
139.5000     982
139.5200     989
139.5400     986
139.5600     925
139.5800     851
139.6000     827
139.6200     822
139.6400     817
139.6600     831
139.6800     947
139.7000    1079
139.7200    1094
139.7400    1055
139.7600     981
139.7800     910
139.8000     926
139.8200     974
139.8400    1014
139.8600    1036
139.8800     989
139.9000     935
139.9200     978
139.9400    1050
139.9600    1074
139.9800    1071
140.0000    1034
140.0200    1000
140.0400    1041
140.0600    1094
140.0800    1052
140.1000     987
140.1200     999
140.1400    1027
140.1600     988
140.1800     939
140.2000     972
140.2200    1021
140.2400     987
140.2600     933
140.2800     950
140.3000     995
140.3200    1035
140.3400    1052
140.3600     964
140.3800     848
140.4000     801
140.4200     797
140.4400     874
140.4600     973
140.4800    1016
140.5000    1022
140.5200     959
140.5400     896
140.5600     963
140.5800    1055
140.6000    1004
140.6200     915
140.6400     922
140.6600     958
140.6800     939
140.7000     911
140.7200     940
140.7400     974
140.7600     919
140.7800     842
140.8000     827
140.8200     835
140.8400     836
140.8600     840
140.8800     871
140.9000     903
140.9200     887
140.9400     859
140.9600     876
140.9800     903
141.0000     897
141.0200     877
141.0400     858
141.0600     835
141.0800     787
141.1000     750
141.1200     817
141.1400     904
141.1600     886
141.1800     840
141.2000     867
141.2200     914
141.2400     914
141.2600     897
141.2800     882
141.3000     871
141.3200     878
141.3400     882
141.3600     833
141.3800     773
141.4000     761
141.4200     762
141.4400     726
141.4600     685
141.4800     684
141.5000     704
141.5200     744
141.5400     784
141.5600     781
141.5800     758
141.6000     723
141.6200     684
141.6400     650
141.6600     628
141.6800     654
141.7000     691
141.7200     682
141.7400     657
141.7600     652
141.7800     648
141.8000     614
141.8200     583
141.8400     629
141.8600     689
141.8800     674
141.9000     639
141.9200     657
141.9400     689
141.9600     679
141.9800     653
142.0000     627
142.0200     609
142.0400     628
142.0600     651
142.0800     621
142.1000     582
142.1200     611
142.1400     654
142.1600     632
142.1800     595
142.2000     615
142.2200     649
142.2400     643
142.2600     627
142.2800     639
142.3000     661
142.3200     671
142.3400     679
142.3600     694
142.3800     701
142.4000     655
142.4200     588
142.4400     527
142.4600     484
142.4800     516
142.5000     569
142.5200     574
142.5400     565
142.5600     579
142.5800     600
142.6000     608
142.6200     603
142.6400     566
142.6600     524
142.6800     521
142.7000     530
142.7200     527
142.7400     516
142.7600     487
142.7800     460
142.8000     481
142.8200     513
142.8400     505
142.8600     492
142.8800     532
142.9000     588
142.9200     613
142.9400     612
142.9600     547
142.9800     476
143.0000     500
143.0200     554
143.0400     565
143.0600     554
143.0800     520
143.1000     476
143.1200     437
143.1400     415
143.1600     473
143.1800     541
143.2000     501
143.2200     437
143.2400     474
143.2600     530
143.2800     473
143.3000     386
143.3200     374
143.3400     392
143.3600     408
143.3800     419
143.4000     403
143.4200     383
143.4400     390
143.4600     409
143.4800     436
143.5000     461
143.5200     461
143.5400     448
143.5600     420
143.5800     388
143.6000     365
143.6200     350
143.6400     361
143.6600     384
143.6800     407
143.7000     422
143.7200     394
143.7400     361
143.7600     395
143.7800     447
143.8000     459
143.8200     453
143.8400     438
143.8600     422
143.8800     416
143.9000     411
143.9200     391
143.9400     366
143.9600     343
143.9800     329
144.0000     353
144.0200     389
144.0400     403
144.0600     408
144.0800     408
144.1000     403
144.1200     380
144.1400     352
144.1600     336
144.1800     330
144.2000     355
144.2200     383
144.2400     360
144.2600     325
144.2800     338
144.3000     365
144.3200     365
144.3400     359
144.3600     370
144.3800     388
144.4000     406
144.4200     421
144.4400     419
144.4600     408
144.4800     379
144.5000     350
144.5200     359
144.5400     374
144.5600     344
144.5800     310
144.6000     344
144.6200     395
144.6400     386
144.6600     357
144.6800     345
144.7000     337
144.7200     322
144.7400     308
144.7600     314
144.7800     321
144.8000     292
144.8200     261
144.8400     300
144.8600     350
144.8800     320
144.9000     269
144.9200     275
144.9400     302
144.9600     327
144.9800     347
145.0000     344
145.0200     335
145.0400     342
145.0600     347
145.0800     307
145.1000     262
145.1200     281
145.1400     316
145.1600     306
145.1800     288
145.2000     323
145.2200     363
145.2400     323
145.2600     264
145.2800     272
145.3000     305
145.3200     336
145.3400     360
145.3600     354
145.3800     335
145.4000     310
145.4200     284
145.4400     269
145.4600     263
145.4800     277
145.5000     286
145.5200     229
145.5400     165
145.5600     202
145.5800     272
145.6000     301
145.6200     308
145.6400     290
145.6600     266
145.6800     265
145.7000     272
145.7200     276
145.7400     279
145.7600     285
145.7800     294
145.8000     306
145.8200     311
145.8400     270
145.8600     217
145.8800     199
145.9000     198
145.9200     213
145.9400     233
145.9600     240
145.9800     244
146.0000     256
146.0200     277
146.0400     320
146.0600     352
146.0800     287
146.1000     199
146.1200     193
146.1400     218
146.1600     236
146.1800     253
146.2000     277
146.2200     290
146.2400     241
146.2600     182
146.2800     195
146.3000     234
146.3200     256
146.3400     270
146.3600     271
146.3800     266
146.4000     257
146.4200     249
146.4400     250
146.4600     246
146.4800     205
146.5000     164
146.5200     195
146.5400     246
146.5600     252
146.5800     244
146.6000     256
146.6200     270
146.6400     259
146.6600     236
146.6800     211
146.7000     197
146.7200     238
146.7400     293
146.7600     300
146.7800     284
146.8000     251
146.8200     217
146.8400     213
146.8600     220
146.8800     220
146.9000     218
146.9200     213
146.9400     215
146.9600     260
146.9800     308
147.0000     283
147.0200     238
147.0400     238
147.0600     252
147.0800     246
147.1000     236
147.1200     246
147.1400     260
147.1600     256
147.1800     239
147.2000     202
147.2200     157
147.2400     120
147.2600     101
147.2800     152
147.3000     216
147.3200     198
147.3400     157
147.3600     158
147.3800     178
147.4000     211
147.4200     241
147.4400     230
147.4600     209
147.4800     226
147.5000     251
147.5200     239
147.5400     216
147.5600     205
147.5800     204
147.6000     230
147.6200     260
147.6400     261
147.6600     253
147.6800     250
147.7000     250
147.7200     248
147.7400     253
147.7600     290
147.7800     322
147.8000     264
147.8200     187
147.8400     197
147.8600     230
147.8800     213
147.9000     181
147.9200     182
147.9400     193
147.9600     186
147.9800     184
148.0000     245
148.0200     310
148.0400     270
148.0600     196
148.0800     157
148.1000     138
148.1200     146
148.1400     160
148.1600     157
148.1800     152
148.2000     171
148.2200     198
148.2400     221
148.2600     235
148.2800     209
148.3000     170
148.3200     143
148.3400     131
148.3600     169
148.3800     219
148.4000     227
148.4200     225
148.4400     253
148.4600     284
148.4800     268
148.5000     238
148.5200     225
148.5400     218
148.5600     208
148.5800     199
148.6000     205
148.6200     212
148.6400     195
148.6600     179
148.6800     212
148.7000     256
148.7200     265
148.7400     262
148.7600     274
148.7800     282
148.8000     238
148.8200     187
148.8400     201
148.8600     235
148.8800     237
148.9000     225
148.9200     200
148.9400     176
148.9600     184
148.9800     201
149.0000     208
149.0200     204
149.0400     172
149.0600     132
149.0800     113
149.1000     111
149.1200     148
149.1400     196
149.1600     224
149.1800     238
149.2000     227
149.2200     207
149.2400     199
149.2600     193
149.2800     178
149.3000     166
149.3200     179
149.3400     202
149.3600     217
149.3800     225
149.4000     214
149.4200     199
149.4400     198
149.4600     197
149.4800     174
149.5000     150
149.5200     168
149.5400     197
149.5600     203
149.5800     200
149.6000     203
149.6200     204
149.6400     175
149.6600     142
149.6800     144
149.7000     161
149.7200     183
149.7400     205
149.7600     217
149.7800     219
149.8000     193
149.8200     164
149.8400     183
149.8600     213
149.8800     203
149.9000     179
149.9200     162
149.9400     144
149.9600     104
149.9800      67
150.0000      85
150.0200     122
150.0400     141
150.0600     155
150.0800     179
150.1000     201
150.1200     194
150.1400     177
150.1600     162
150.1800     152
150.2000     164
150.2200     183
150.2400     197
150.2600     205
150.2800     194
150.3000     181
150.3200     188
150.3400     197
150.3600     173
150.3800     142
150.4000     144
150.4200     159
150.4400     171
150.4600     180
150.4800     182
150.5000     188
150.5200     222
150.5400     256
150.5600     227
150.5800     180
150.6000     166
150.6200     166
150.6400     168
150.6600     171
150.6800     177
150.7000     185
150.7200     191
150.7400     195
150.7600     189
150.7800     179
150.8000     166
150.8200     155
150.8400     157
150.8600     161
150.8800     142
150.9000     119
150.9200     124
150.9400     138
150.9600     144
150.9800     147
151.0000     158
151.0200     171
151.0400     174
151.0600     178
151.0800     200
151.1000     221
151.1200     194
151.1400     163
151.1600     205
151.1800     259
151.2000     221
151.2200     163
151.2400     182
151.2600     221
151.2800     203
151.3000     171
151.3200     179
151.3400     202
151.3600     222
151.3800     234
151.4000     219
151.4200     197
151.4400     190
151.4600     188
151.4800     174
151.5000     162
151.5200     175
151.5400     197
151.5600     209
151.5800     216
151.6000     216
151.6200     210
151.6400     184
151.6600     157
151.6800     160
151.7000     170
151.7200     152
151.7400     131
151.7600     155
151.7800     188
151.8000     176
151.8200     152
151.8400     158
151.8600     174
151.8800     182
151.9000     184
151.9200     181
151.9400     181
151.9600     213
151.9800     244
152.0000     213
152.0200     170
152.0400     189
152.0600     225
152.0800     222
152.1000     204
152.1200     185
152.1400     169
152.1600     178
152.1800     193
152.2000     195
152.2200     194
152.2400     213
152.2600     232
152.2800     214
152.3000     192
152.3200     217
152.3400     251
152.3600     235
152.3800     202
152.4000     189
152.4200     184
152.4400     187
152.4600     191
152.4800     184
152.5000     171
152.5200     154
152.5400     143
152.5600     167
152.5800     197
152.6000     187
152.6200     170
152.6400     193
152.6600     219
152.6800     175
152.7000     121
152.7200     154
152.7400     210
152.7600     206
152.7800     184
152.8000     195
152.8200     214
152.8400     205
152.8600     187
152.8800     184
152.9000     179
152.9200     141
152.9400      99
152.9600     108
152.9800     140
153.0000     177
153.0200     212
153.0400     219
153.0600     213
153.0800     197
153.1000     176
153.1200     155
153.1400     133
153.1600     113
153.1800      97
153.2000     102
153.2200     118
153.2400     141
153.2600     168
153.2800     200
153.3000     226
153.3200     212
153.3400     189
153.3600     199
153.3800     217
153.4000     202
153.4200     175
153.4400     158
153.4600     152
153.4800     184
153.5000     221
153.5200     203
153.5400     167
153.5600     153
153.5800     149
153.6000     158
153.6200     170
153.6400     167
153.6600     157
153.6800     137
153.7000     117
153.7200     117
153.7400     123
153.7600     116
153.7800     111
153.8000     146
153.8200     186
153.8400     174
153.8600     152
153.8800     177
153.9000     209
153.9200     182
153.9400     138
153.9600     124
153.9800     127
154.0000     152
154.0200     182
154.0400     195
154.0600     199
154.0800     188
154.1000     175
154.1200     174
154.1400     184
154.1600     225
154.1800     260
154.2000     197
154.2200     108
154.2400      86
154.2600      92
154.2800     109
154.3000     131
154.3200     150
154.3400     161
154.3600     137
154.3800     104
154.4000      94
154.4200     107
154.4400     187
154.4600     270
154.4800     241
154.5000     175
154.5200     144
154.5400     130
154.5600     124
154.5800     126
154.6000     148
154.6200     171
154.6400     159
154.6600     139
154.6800     148
154.7000     163
154.7200     158
154.7400     142
154.7600     114
154.7800      92
154.8000     118
154.8200     156
154.8400     153
154.8600     133
154.8800     114
154.9000     101
154.9200     112
154.9400     127
154.9600     120
154.9800     112
155.0000     146
155.0200     189
155.0400     200
155.0600     198
155.0800     193
155.1000     182
155.1200     144
155.1400     110
155.1600     146
155.1800     194
155.2000     159
155.2200      99
155.2400      82
155.2600      84
155.2800      93
155.3000     108
155.3200     138
155.3400     169
155.3600     180
155.3800     182
155.4000     182
155.4200     180
155.4400     168
155.4600     153
155.4800     143
155.5000     135
155.5200     129
155.5400     129
155.5600     162
155.5800     194
155.6000     153
155.6200      93
155.6400      83
155.6600      92
155.6800      94
155.7000      96
155.7200     110
155.7400     125
155.7600     127
155.7800     124
155.8000     126
155.8200     131
155.8400     146
155.8600     160
155.8800     154
155.9000     144
155.9200     157
155.9400     176
155.9600     177
155.9800     167
156.0000     140
156.0200     114
156.0400     128
156.0600     151
156.0800     134
156.1000     111
156.1200     135
156.1400     170
156.1600     170
156.1800     152
156.2000     114
156.2200      80
156.2400     104
156.2600     151
156.2800     193
156.3000     221
156.3200     191
156.3400     143
156.3600     128
156.3800     124
156.4000     107
156.4200      91
156.4400     105
156.4600     133
156.4800     171
156.5000     200
156.5200     164
156.5400     109
156.5600      87
156.5800      85
156.6000     113
156.6200     146
156.6400     141
156.6600     121
156.6800     104
156.7000      95
156.7200     118
156.7400     148
156.7600     148
156.7800     135
156.8000     120
156.8200     108
156.8400     118
156.8600     133
156.8800     133
156.9000     127
156.9200     119
156.9400     116
156.9600     136
156.9800     158
157.0000     139
157.0200     106
157.0400      91
157.0600      85
157.0800      89
157.1000      99
157.1200     119
157.1400     140
157.1600     146
157.1800     143
157.2000     125
157.2200     107
157.2400     117
157.2600     140
157.2800     168
157.3000     191
157.3200     174
157.3400     147
157.3600     142
157.3800     146
157.4000     153
157.4200     159
157.4400     155
157.4600     148
157.4800     143
157.5000     136
157.5200     119
157.5400     105
157.5600     131
157.5800     165
157.6000     162
157.6200     144
157.6400     125
157.6600     113
157.6800     141
157.7000     175
157.7200     159
157.7400     129
157.7600     130
157.7800     144
157.8000     155
157.8200     160
157.8400     138
157.8600     120
157.8800     172
157.9000     233
157.9200     201
157.9400     142
157.9600     140
157.9800     155
158.0000     145
158.0200     128
158.0400     126
158.0600     125
158.0800     102
158.1000      80
158.1200     105
158.1400     144
158.1600     158
158.1800     163
158.2000     176
158.2200     189
158.2400     189
158.2600     182
158.2800     173
158.3000     160
158.3200     132
158.3400      96
158.3600      49
158.3800      12
158.4000      50
158.4200     111
158.4400     137
158.4600     142
158.4800     115
158.5000      86
158.5200     112
158.5400     152
158.5600     150
158.5800     133
158.6000     121
158.6200     117
158.6400     143
158.6600     170
158.6800     137
158.7000      92
158.7200     100
158.7400     128
158.7600     146
158.7800     156
158.8000     145
158.8200     125
158.8400     105
158.8600      91
158.8800     107
158.9000     130
158.9200     129
158.9400     120
158.9600     115
158.9800     114
159.0000     133
159.0200     154
159.0400     148
159.0600     133
159.0800     120
159.1000     107
159.1200      89
159.1400      70
159.1600      57
159.1800      51
159.2000      64
159.2200      86
159.2400     118
159.2600     150
159.2800     165
159.3000     173
159.3200     178
159.3400     177
159.3600     152
159.3800     122
159.4000     109
159.4200     101
159.4400      86
159.4600      75
159.4800      98
159.5000     130
159.5200     142
159.5400     145
159.5600     148
159.5800     150
159.6000     152
159.6200     154
159.6400     154
159.6600     151
159.6800     130
159.7000     102
159.7200      77
159.7400      61
159.7600      87
159.7800     120
159.8000     111
159.8200      94
159.8400     119
159.8600     159
159.8800     187
159.9000     200
159.9200     160
159.9400     108
159.9600     104
159.9800     117
160.0000     115
160.0200     107
160.0400      99
160.0600      95
160.0800     113
160.1000     132
160.1200     114
160.1400      88
160.1600      90
160.1800     103
160.2000     110
160.2200     117
160.2400     139
160.2600     156
160.2800     118
160.3000      66
160.3200      57
160.3400      68
160.3600      94
160.3800     122
160.4000     128
160.4200     125
160.4400     116
160.4600     103
160.4800      88
160.5000      73
160.5200      63
160.5400      62
160.5600      94
160.5800     132
160.6000     127
160.6200     106
160.6400      93
160.6600      87
160.6800     101
160.7000     121
160.7200     128
160.7400     132
160.7600     148
160.7800     163
160.8000     154
160.8200     136
160.8400     117
160.8600     101
160.8800     106
160.9000     118
160.9200     120
160.9400     119
160.9600     120
160.9800     121
161.0000     120
161.0200     120
161.0400     127
161.0600     133
161.0800     119
161.1000      95
161.1200      64
161.1400      43
161.1600      82
161.1800     135
161.2000     135
161.2200     120
161.2400     138
161.2600     163
161.2800     153
161.3000     131
161.3200     116
161.3400     100
161.3600      64
161.3800      27
161.4000      30
161.4200      53
161.4400     104
161.4600     156
161.4800     155
161.5000     133
161.5200     113
161.5400      97
161.5600     104
161.5800     121
161.6000     140
161.6200     151
161.6400     117
161.6600      73
161.6800      69
161.7000      78
161.7200      73
161.7400      67
161.7600      78
161.7800      99
161.8000     133
161.8200     164
161.8400     152
161.8600     127
161.8800     130
161.9000     139
161.9200     120
161.9400      95
161.9600      97
161.9800     110