File: XRD_Tool/log/LDA_sample_name_56789_Psi-0_20180623-130425.txt
138.0000     260
138.0200     246
138.0400     244
138.0600     246
138.0800     246
138.1000     250
138.1200     271
138.1400     292
138.1600     279
138.1800     260
138.2000     271
138.2200     293
138.2400     307
138.2600     315
138.2800     315
138.3000     313
138.3200     324
138.3400     335
138.3600     319
138.3800     292
138.4000     260
138.4200     239
138.4400     282
138.4600     336
138.4800     320
138.5000     285
138.5200     295
138.5400     319
138.5600     324
138.5800     320
138.6000     303
138.6200     289
138.6400     317
138.6600     352
138.6800     342
138.7000     323
138.7200     354
138.7400     393
138.7600     379
138.7800     347
138.8000     338
138.8200     339
138.8400     342
138.8600     343
138.8800     329
138.9000     308
138.9200     283
138.9400     263
138.9600     273
138.9800     295
139.0000     312
139.0200     326
139.0400     330
139.0600     332
139.0800     341
139.1000     348
139.1200     333
139.1400     322
139.1600     373
139.1800     436
139.2000     439
139.2200     420
139.2400     414
139.2600     409
139.2800     376
139.3000     341
139.3200     351
139.3400     375
139.3600     382
139.3800     381
139.4000     372
139.4200     364
139.4400     377
139.4600     397
139.4800     402
139.5000     397
139.5200     367
139.5400     337
139.5600     355
139.5800     391
139.6000     417
139.6200     430
139.6400     398
139.6600     359
139.6800     370
139.7000     403
139.7200     438
139.7400     465
139.7600     447
139.7800     416
139.8000     415
139.8200     424
139.8400     426
139.8600     422
139.8800     396
139.9000     369
139.9200     372
139.9400     385
139.9600     381
139.9800     380
140.0000     423
140.0200     477
140.0400     506
140.0600     522
140.0800     530
140.1000     532
140.1200     527
140.1400     515
140.1600     481
140.1800     451
140.2000     478
140.2200     522
140.2400     539
140.2600     541
140.2800     520
140.3000     492
140.3200     472
140.3400     460
140.3600     465
140.3800     480
140.4000     513
140.4200     541
140.4400     511
140.4600     467
140.4800     476
140.5000     507
140.5200     540
140.5400     569
140.5600     576
140.5800     578
140.6000     600
140.6200     626
140.6400     632
140.6600     629
140.6800     621
140.7000     618
140.7200     647
140.7400     681
140.7600     673
140.7800     652
140.8000     648
140.8200     656
140.8400     692
140.8600     734
140.8800     748
140.9000     751
140.9200     759
140.9400     765
140.9600     751
140.9800     728
141.0000     702
141.0200     685
141.0400     728
141.0600     786
141.0800     807
141.1000     816
141.1200     837
141.1400     858
141.1600     854
141.1800     849
141.2000     887
141.2200     941
141.2400     985
141.2600    1015
141.2800     997
141.3000     965
141.3200     963
141.3400     978
141.3600    1021
141.3800    1062
141.4000    1033
141.4200     988
141.4400     995
141.4600    1016
141.4800    1005
141.5000     999
141.5200    1080
141.5400    1185
141.5600    1238
141.5800    1269
141.6000    1295
141.6200    1302
141.6400    1222
141.6600    1137
141.6800    1192
141.7000    1305
141.7200    1425
141.7400    1527
141.7600    1529
141.7800    1496
141.8000    1491
141.8200    1500
141.8400    1523
141.8600    1543
141.8800    1528
141.9000    1507
141.9200    1531
141.9400    1579
141.9600    1660
141.9800    1735
142.0000    1714
142.0200    1688
142.0400    1835
142.0600    2014
142.0800    2010
142.1000    1940
142.1200    1908
142.1400    1912
142.1600    2016
142.1800    2140
142.2000    2162
142.2200    2147
142.2400    2147
142.2600    2201
142.2800    2492
142.3000    2811
142.3200    2797
142.3400    2665
142.3600    2614
142.3800    2600
142.4000    2605
142.4200    2611
142.4400    2588
142.4600    2569
142.4800    2624
142.5000    2709
142.5200    2802
142.5400    2888
142.5600    2921
142.5800    2917
142.6000    2834
142.6200    2734
142.6400    2703
142.6600    2714
142.6800    2801
142.7000    2884
142.7200    2791
142.7400    2657
142.7600    2674
142.7800    2741
142.8000    2750
142.8200    2746
142.8400    2794
142.8600    2858
142.8800    2903
142.9000    2917
142.9200    2811
142.9400    2673
142.9600    2615
142.9800    2594
143.0000    2595
143.0200    2614
143.0400    2676
143.0600    2744
143.0800    2750
143.1000    2706
143.1200    2532
143.1400    2352
143.1600    2402
143.1800    2533
143.2000    2609
143.2200    2631
143.2400    2488
143.2600    2307
143.2800    2263
143.3000    2267
143.3200    2244
143.3400    2215
143.3600    2210
143.3800    2195
143.4000    2088
143.4200    1976
143.4400    2022
143.4600    2119
143.4800    2148
143.5000    2141
143.5200    2091
143.5400    2026
143.5600    1976
143.5800    1935
143.6000    1912
143.6200    1890
143.6400    1840
143.6600    1788
143.6800    1786
143.7000    1800
143.7200    1797
143.7400    1775
143.7600    1692
143.7800    1594
143.8000    1551
143.8200    1523
143.8400    1465
143.8600    1406
143.8800    1405
143.9000    1425
143.9200    1434
143.9400    1426
143.9600    1361
143.9800    1291
144.0000    1313
144.0200    1350
144.0400    1284
144.0600    1192
144.0800    1183
144.1000    1202
144.1200    1193
144.1400    1194
144.1600    1301
144.1800    1415
144.2000    1344
144.2200    1219
144.2400    1187
144.2600    1187
144.2800    1154
144.3000    1104
144.3200    1032
144.3400     967
144.3600     977
144.3800    1009
144.4000    1001
144.4200     981
144.4400     979
144.4600     989
144.4800    1016
144.5000    1035
144.5200     977
144.5400     909
144.5600     943
144.5800     993
144.6000     925
144.6200     828
144.6400     831
144.6600     865
144.6800     862
144.7000     845
144.7200     833
144.7400     827
144.7600     836
144.7800     839
144.8000     779
144.8200     711
144.8400     733
144.8600     776
144.8800     744
144.9000     683
144.9200     627
144.9400     583
144.9600     587
144.9800     606
145.0000     598
145.0200     576
145.0400     529
145.0600     482
145.0800     478
145.1000     492
145.1200     505
145.1400     509
145.1600     476
145.1800     436
145.2000     436
145.2200     456
145.2400     494
145.2600     526
145.2800     487
145.3000     425
145.3200     393
145.3400     378
145.3600     393
145.3800     412
145.4000     398
145.4200     377
145.4400     396
145.4600     423
145.4800     418
145.5000     401
145.5200     389
145.5400     381
145.5600     382
145.5800     376
145.6000     321
145.6200     255
145.6400     224
145.6600     220
145.6800     274
145.7000     340
145.7200     346
145.7400     330
145.7600     321
145.7800     316
145.8000     319
145.8200     317
145.8400     274
145.8600     224
145.8800     229
145.9000     250
145.9200     246
145.9400     234
145.9600     235
145.9800     237
146.0000     214
146.0200     189
146.0400     196
146.0600     211
146.0800     206
146.1000     194
146.1200     195
146.1400     197
146.1600     178
146.1800     154
146.2000     150
146.2200     158
146.2400     186
146.2600     212
146.2800     189
146.3000     154
146.3200     151
146.3400     167
146.3600     211
146.3800     258
146.4000     260
146.4200     237
146.4400     179
146.4600     118
146.4800     114
146.5000     129
146.5200     132
146.5400     135
146.5600     160
146.5800     187
146.6000     182
146.6200     168
146.6400     169
146.6600     178
146.6800     189
146.7000     196
146.7200     178
146.7400     156
146.7600     164
146.7800     180
146.8000     181
146.8200     177
146.8400     181
146.8600     186
146.8800     178
146.9000     165
146.9200     155
146.9400     146
146.9600     134
146.9800     125
147.0000     143
147.0200     163
147.0400     148
147.0600     123
147.0800     126
147.1000     138
147.1200     137
147.1400     133
147.1600     139
147.1800     147
147.2000     143
147.2200     137
147.2400     138
147.2600     140
147.2800     135
147.3000     127
147.3200     117
147.3400     111
147.3600     122
147.3800     137
147.4000     140
147.4200     139
147.4400     142
147.4600     147
147.4800     160
147.5000     174
147.5200     175
147.5400     167
147.5600     140
147.5800     117
147.6000     148
147.6200     192
147.6400     196
147.6600     181
147.6800     156
147.7000     128
147.7200     110
147.7400     101
147.7600     115
147.7800     134
147.8000     130
147.8200     122
147.8400     146
147.8600     175
147.8800     170
147.9000     153
147.9200     141
147.9400     133
147.9600     134
147.9800     131
148.0000      96
148.0200      60
148.0400      84
148.0600     126
148.0800     136
148.1000     135
148.1200     136
148.1400     137
148.1600     135
148.1800     132
148.2000     134
148.2200     135
148.2400     124
148.2600     105
148.2800      71
148.3000      40
148.3200      54
148.3400      82
148.3600      90
148.3800      95
148.4000     122
148.4200     149
148.4400     132
148.4600     105
148.4800     113
148.5000     128
148.5200     108
148.5400      81
148.5600      84
148.5800      99
148.6000     111
148.6200     121
148.6400     129
148.6600     132
148.6800     112
148.7000      87
148.7200      90
148.7400     101
148.7600      97
148.7800      89
148.8000      86
148.8200      90
148.8400     112
148.8600     137
148.8800     134
148.9000     120
148.9200     106
148.9400      94
148.9600      95
148.9800     103
149.0000     118
149.0200     136
149.0400     157
149.0600     172
149.0800     152
149.1000     124
149.1200     125
149.1400     132
149.1600     119
149.1800     102
149.2000     110
149.2200     128
149.2400     144
149.2600     156
149.2800     145
149.3000     124
149.3200     101
149.3400      83
149.3600      97
149.3800     117
149.4000     105
149.4200      84
149.4400      76
149.4600      77
149.4800      90
149.5000     104
149.5200     100
149.5400      91
149.5600      97
149.5800     106
149.6000     105
149.6200      98
149.6400      84
149.6600      74
149.6800      96
149.7000     124
149.7200     124
149.7400     114
149.7600     119
149.7800     127
149.8000     128
149.8200     128
149.8400     137
149.8600     146
149.8800     140
149.9000     129
149.9200     124
149.9400     122
149.9600     117
149.9800     110
150.0000     100
150.0200      91
150.0400      97
150.0600     108
150.0800     119
150.1000     127
150.1200     125
150.1400     121
150.1600     127
150.1800     133
150.2000     121
150.2200     102
150.2400      88
150.2600      84
150.2800     125
150.3000     171
150.3200     157
150.3400     121
150.3600      98
150.3800      83
150.4000      82
150.4200      90
150.4400     118
150.4600     146
150.4800     135
150.5000     114
150.5200     118
150.5400     131
150.5600     136
150.5800     136
150.6000     128
150.6200     119
150.6400     126
150.6600     138
150.6800     139
150.7000     139
150.7200     164
150.7400     189
150.7600     171
150.7800     136
150.8000     106
150.8200      85
150.8400     102
150.8600     128
150.8800     126
150.9000     114
150.9200     115
150.9400     124
150.9600     148
150.9800     171
151.0000     159
151.0200     134
151.0400     114
151.0600     100
151.0800     106
151.1000     119
151.1200     124
151.1400     126
151.1600     126
151.1800     126
151.2000     123
151.2200     121
151.2400     132
151.2600     142
151.2800     122
151.3000      94
151.3200      83
151.3400      79
151.3600      75
151.3800      74
151.4000      88
151.4200     105
151.4400     107
151.4600     104
151.4800     109
151.5000     121
151.5200     150
151.5400     178
151.5600     166
151.5800     137
151.6000     104
151.6200      80
151.6400     105
151.6600     144
151.6800     158
151.7000     157
151.7200     132
151.7400     106
151.7600     119
151.7800     142
151.8000     141
151.8200     130
151.8400     111
151.8600      92
151.8800      88
151.9000      96
151.9200     132
151.9400     168
151.9600     146
151.9800     105
152.0000      87
152.0200      83
152.0400      96
152.0600     112
152.0800     109
152.1000     104
152.1200     124
152.1400     149
152.1600     146
152.1800     131
152.2000     113
152.2200      96
152.2400      99
152.2600     107
152.2800     108
152.3000     109
152.3200     120
152.3400     136
152.3600     154
152.3800     165
152.4000     141
152.4200     106
152.4400      84
152.4600      75
152.4800     103
152.5000     140
152.5200     155
152.5400     157
152.5600     138
152.5800     114
152.6000     111
152.6200     121
152.6400     151
152.6600     177
152.6800     142
152.7000      93
152.7200     102
152.7400     125
152.7600     101
152.7800      66
152.8000      66
152.8200      81
152.8400     101
152.8600     121
152.8800     128
152.9000     127
152.9200     113
152.9400      99
152.9600     118
152.9800     150
153.0000     182
153.0200     203
153.0400     167
153.0600     111
153.0800      64
153.1000      30
153.1200      47
153.1400      77
153.1600      64
153.1800      45
153.2000      83
153.2200     139
153.2400     178
153.2600     201
153.2800     181
153.3000     144
153.3200     110
153.3400      83
153.3600      79
153.3800      83
153.4000      74
153.4200      69
153.4400     107
153.4600     151
153.4800     137
153.5000     103
153.5200      89
153.5400      88
153.5600     114
153.5800     144
153.6000     147
153.6200     138
153.6400     122
153.6600     113
153.6800     146
153.7000     187
153.7200     181
153.7400     159
153.7600     149
153.7800     145
153.8000     151
153.8200     152
153.8400     111
153.8600      67
153.8800      88
153.9000     127
153.9200     123
153.9400      98
153.9600      58
153.9800      24
154.0000      52
154.0200      97
154.0400     110
154.0600     109
154.0800     101
154.1000      91
154.1200      80
154.1400      72
154.1600      87
154.1800     106
154.2000      98
154.2200      83
154.2400      83
154.2600      90
154.2800     102
154.3000     116
154.3200     129
154.3400     136
154.3600     123
154.3800     106
154.4000     116
154.4200     133
154.4400     135
154.4600     128
154.4800     107
154.5000      87
154.5200      92
154.5400     108
154.5600     122
154.5800     130
154.6000     107
154.6200      77
154.6400      78
154.6600      92
154.6800     105
154.7000     115
154.7200     118
154.7400     117
154.7600     109
154.7800     104
154.8000     121
154.8200     140
154.8400     124
154.8600      96
154.8800      78
154.9000      68
154.9200      76
154.9400      88
154.9600      77
154.9800      61
155.0000      70
155.0200      84
155.0400      81
155.0600      78
155.0800     105
155.1000     138
155.1200     133
155.1400     114
155.1600     103
155.1800      97
155.2000      99
155.2200     102
155.2400      85
155.2600      63
155.2800      48
155.3000      43
155.3200      74
155.3400     112
155.3600     109
155.3800      94
155.4000     105
155.4200     122
155.4400     111
155.4600      91
155.4800      83
155.5000      80
155.5200      87
155.5400      97
155.5600     105
155.5800     111
155.6000     105
155.6200      93
155.6400      68
155.6600      46
155.6800      66
155.7000      98
155.7200     111
155.7400     114
155.7600     101
155.7800      86
155.8000      96
155.8200     111
155.8400     106
155.8600      92
155.8800      80
155.9000      69
155.9200      64
155.9400      64
155.9600      69
155.9800      75
156.0000      68
156.0200      60
156.0400      72
156.0600      91
156.0800     105
156.1000     111
156.1200      92
156.1400      72
156.1600     100
156.1800     140
156.2000     138
156.2200     123
156.2400     122
156.2600     123
156.2800     114
156.3000     103
156.3200     109
156.3400     121
156.3600     134
156.3800     142
156.4000     119
156.4200      89
156.4400      94
156.4600     106
156.4800      90
156.5000      69
156.5200      86
156.5400     111
156.5600      99
156.5800      79
156.6000      84
156.6200     101
156.6400     120
156.6600     135
156.6800     128
156.7000     115
156.7200     115
156.7400     117
156.7600      96
156.7800      70
156.8000      67
156.8200      70
156.8400      58
156.8600      46
156.8800      59
156.9000      79
156.9200      77
156.9400      66
156.9600      50
156.9800      36
157.0000      41
157.0200      52
157.0400      61
157.0600      68
157.0800      72
157.1000      75
157.1200      83
157.1400      92
157.1600      99
157.1800     106
157.2000     115
157.2200     123
157.2400     124
157.2600     121
157.2800     113
157.3000     104
157.3200     100
157.3400      98
157.3600      95
157.3800      91
157.4000      92
157.4200      93
157.4400      91
157.4600      87
157.4800      88
157.5000      90
157.5200      94
157.5400      97
157.5600      96
157.5800      97
157.6000     108
157.6200     121
157.6400     117
157.6600     108
157.6800      99
157.7000      94
157.7200     102
157.7400     108
157.7600      73
157.7800      34
157.8000      60
157.8200     108
157.8400     139
157.8600     157
157.8800     142
157.9000     116
157.9200     101
157.9400      95
157.9600     109
157.9800     125
158.0000     111
158.0200      91
158.0400      96
158.0600     107
158.0800      90
158.1000      67
158.1200      69
158.1400      79
158.1600      82
158.1800      80
158.2000      66
158.2200      51
158.2400      51
158.2600      60
158.2800      79
158.3000      98
158.3200      92
158.3400      79
158.3600      79
158.3800      84
158.4000      81
158.4200      74
158.4400      65
158.4600      64
158.4800     103
158.5000     147
158.5200     133
158.5400     101
158.5600     101
158.5800     105
158.6000      72
158.6200      36
158.6400      58
158.6600      98
158.6800     105
158.7000      99
158.7200      91
158.7400      80
158.7600      56
158.7800      33
158.8000      47
158.8200      73
158.8400      94
158.8600     107
158.8800      93
158.9000      71
158.9200      61
158.9400      58
158.9600      68
158.9800      83
159.0000      90
159.0200      94
159.0400      98
159.0600     102
159.0800     111
159.1000     117
159.1200     105
159.1400      89
159.1600      93
159.1800     103
159.2000     106
159.2200     107
159.2400     113
159.2600     116
159.2800      94
159.3000      71
159.3200      95
159.3400     129
159.3600     121
159.3800     102
159.4000     108
159.4200     121
159.4400     117
159.4600     111
159.4800     125
159.5000     141
159.5200     122
159.5400      90
159.5600      56
159.5800      28
159.6000      29
159.6200      41
159.6400      54
159.6600      64
159.6800      54
159.7000      41
159.7200      48
159.7400      63
159.7600      70
159.7800      71
159.8000      58
159.8200      47
159.8400      66
159.8600      92
159.8800      90
159.9000      77
159.9200      69
159.9400      66
159.9600      78
159.9800      91
160.0000      79
160.0200      61
160.0400      63
160.0600      70
160.0800      65
160.1000      59
160.1200      70
160.1400      87
160.1600     102
160.1800     114
160.2000     111
160.2200     102
160.2400      85
160.2600      70
160.2800      80
160.3000      97
160.3200      99
160.3400      91
160.3600      66
160.3800      37
160.4000      21
160.4200      15
160.4400      28
160.4600      47
160.4800      61
160.5000      72
160.5200      83
160.5400      89
160.5600      77
160.5800      59
160.6000      54
160.6200      55
160.6400      63
160.6600      73
160.6800      85
160.7000      96
160.7200     102
160.7400     105
160.7600     106
160.7800     103
160.8000      82
160.8200      62
160.8400      83
160.8600     113
160.8800      98
160.9000      73
160.9200      81
160.9400      98
160.9600      90
160.9800      76
161.0000      79
161.0200      86
161.0400      76
161.0600      63
161.0800      63
161.1000      67
161.1200      56
161.1400      46
161.1600      63
161.1800      85
161.2000      82
161.2200      73
161.2400      92
161.2600     117
161.2800     112
161.3000      98
161.3200      92
161.3400      91
161.3600      92
161.3800      90
161.4000      70
161.4200      45
161.4400      38
161.4600      40
161.4800      54
161.5000      67
161.5200      55
161.5400      35
161.5600      23
161.5800      18
161.6000      30
161.6200      49
161.6400      71
161.6600      93
161.6800     103
161.7000     106
161.7200      89
161.7400      66
161.7600      48
161.7800      36
161.8000      46
161.8200      64
161.8400      85
161.8600     104
161.8800     103
161.9000      94
161.9200      77
161.9400      60
161.9600      59
161.9800      64