File: XRD_Tool/log/LDA_sample_name_56789_Psi-0_20180623-131434.txt
138.0000     637
138.0200     675
138.0400     634
138.0600     570
138.0800     543
138.1000     535
138.1200     550
138.1400     576
138.1600     611
138.1800     635
138.2000     592
138.2200     539
138.2400     568
138.2600     624
138.2800     651
138.3000     663
138.3200     652
138.3400     633
138.3600     621
138.3800     619
138.4000     657
138.4200     706
138.4400     733
138.4600     752
138.4800     773
138.5000     782
138.5200     727
138.5400     670
138.5600     728
138.5800     814
138.6000     810
138.6200     779
138.6400     790
138.6600     803
138.6800     743
138.7000     671
138.7200     690
138.7400     743
138.7600     778
138.7800     805
138.8000     825
138.8200     835
138.8400     807
138.8600     773
138.8800     787
138.9000     812
138.9200     790
138.9400     763
138.9600     798
138.9800     845
139.0000     830
139.0200     790
139.0400     747
139.0600     720
139.0800     780
139.1000     860
139.1200     875
139.1400     862
139.1600     846
139.1800     828
139.2000     815
139.2200     805
139.2400     805
139.2600     817
139.2800     867
139.3000     924
139.3200     934
139.3400     928
139.3600     929
139.3800     934
139.4000     944
139.4200     959
139.4400     987
139.4600    1012
139.4800     994
139.5000     969
139.5200    1001
139.5400    1053
139.5600    1098
139.5800    1123
139.6000    1061
139.6200     985
139.6400    1008
139.6600    1046
139.6800     967
139.7000     860
139.7200     850
139.7400     876
139.7600     895
139.7800     912
139.8000     934
139.8200     955
139.8400     961
139.8600     960
139.8800     954
139.9000     957
139.9200    1014
139.9400    1076
139.9600    1061
139.9800    1022
140.0000    1016
140.0200    1022
140.0400    1015
140.0600    1004
140.0800    1001
140.1000     994
140.1200     947
140.1400     892
140.1600     872
140.1800     879
140.2000     951
140.2200    1028
140.2400    1000
140.2600     944
140.2800     955
140.3000     985
140.3200     976
140.3400     952
140.3600     927
140.3800     912
140.4000     953
140.4200    1001
140.4400     964
140.4600     903
140.4800     884
140.5000     878
140.5200     855
140.5400     833
140.5600     848
140.5800     877
140.6000     906
140.6200     921
140.6400     874
140.6600     817
140.6800     835
140.7000     880
140.7200     907
140.7400     922
140.7600     914
140.7800     897
140.8000     885
140.8200     875
140.8400     866
140.8600     867
140.8800     912
140.9000     965
140.9200     973
140.9400     955
140.9600     900
140.9800     842
141.0000     841
141.0200     855
141.0400     830
141.0600     802
141.0800     834
141.1000     875
141.1200     838
141.1400     786
141.1600     817
141.1800     877
141.2000     916
141.2200     934
141.2400     893
141.2600     840
141.2800     837
141.3000     841
141.3200     777
141.3400     707
141.3600     749
141.3800     822
141.4000     831
141.4200     809
141.4400     754
141.4600     693
141.4800     669
141.5000     666
141.5200     701
141.5400     750
141.5600     792
141.5800     820
141.6000     785
141.6200     723
141.6400     653
141.6600     600
141.6800     653
141.7000     739
141.7200     774
141.7400     776
141.7600     718
141.7800     650
141.8000     655
141.8200     690
141.8400     727
141.8600     760
141.8800     773
141.9000     766
141.9200     702
141.9400     623
141.9600     579
141.9800     557
142.0000     575
142.0200     606
142.0400     620
142.0600     628
142.0800     635
142.1000     644
142.1200     673
142.1400     702
142.1600     694
142.1800     671
142.2000     643
142.2200     615
142.2400     597
142.2600     592
142.2800     630
142.3000     675
142.3200     662
142.3400     629
142.3600     613
142.3800     599
142.4000     568
142.4200     534
142.4400     522
142.4600     531
142.4800     608
142.5000     690
142.5200     657
142.5400     592
142.5600     590
142.5800     610
142.6000     609
142.6200     602
142.6400     611
142.6600     625
142.6800     624
142.7000     611
142.7200     565
142.7400     518
142.7600     534
142.7800     571
142.8000     580
142.8200     577
142.8400     572
142.8600     567
142.8800     564
142.9000     557
142.9200     526
142.9400     492
142.9600     487
142.9800     488
143.0000     465
143.0200     447
143.0400     499
143.0600     567
143.0800     574
143.1000     546
143.1200     473
143.1400     398
143.1600     406
143.1800     450
143.2000     502
143.2200     541
143.2400     495
143.2600     427
143.2800     419
143.3000     434
143.3200     443
143.3400     448
143.3600     453
143.3800     451
143.4000     421
143.4200     386
143.4400     386
143.4600     399
143.4800     412
143.5000     423
143.5200     432
143.5400     438
143.5600     434
143.5800     422
143.6000     390
143.6200     357
143.6400     354
143.6600     366
143.6800     385
143.7000     403
143.7200     401
143.7400     395
143.7600     410
143.7800     429
143.8000     418
143.8200     399
143.8400     393
143.8600     391
143.8800     378
143.9000     359
143.9200     335
143.9400     308
143.9600     281
143.9800     261
144.0000     283
144.0200     318
144.0400     343
144.0600     352
144.0800     304
144.1000     254
144.1200     302
144.1400     377
144.1600     382
144.1800     363
144.2000     356
144.2200     357
144.2400     376
144.2600     402
144.2800     425
144.3000     435
144.3200     390
144.3400     330
144.3600     310
144.3800     303
144.4000     279
144.4200     257
144.4400     277
144.4600     304
144.4800     288
144.5000     264
144.5200     290
144.5400     323
144.5600     291
144.5800     247
144.6000     278
144.6200     326
144.6400     314
144.6600     287
144.6800     308
144.7000     339
144.7200     325
144.7400     297
144.7600     284
144.7800     279
144.8000     276
144.8200     276
144.8400     286
144.8600     301
144.8800     321
144.9000     336
144.9200     321
144.9400     297
144.9600     293
144.9800     294
145.0000     282
145.0200     267
145.0400     270
145.0600     277
145.0800     271
145.1000     266
145.1200     298
145.1400     333
145.1600     314
145.1800     276
145.2000     243
145.2200     226
145.2400     271
145.2600     319
145.2800     260
145.3000     176
145.3200     182
145.3400     225
145.3600     271
145.3800     311
145.4000     306
145.4200     290
145.4400     304
145.4600     320
145.4800     284
145.5000     234
145.5200     214
145.5400     213
145.5600     242
145.5800     280
145.6000     298
145.6200     310
145.6400     329
145.6600     343
145.6800     317
145.7000     273
145.7200     222
145.7400     182
145.7600     212
145.7800     267
145.8000     305
145.8200     324
145.8400     277
145.8600     220
145.8800     253
145.9000     302
145.9200     254
145.9400     181
145.9600     175
145.9800     193
146.0000     204
146.0200     216
146.0400     245
146.0600     270
146.0800     240
146.1000     191
146.1200     160
146.1400     142
146.1600     153
146.1800     175
146.2000     202
146.2200     225
146.2400     223
146.2600     215
146.2800     225
146.3000     240
146.3200     242
146.3400     237
146.3600     227
146.3800     213
146.4000     189
146.4200     168
146.4400     184
146.4600     211
146.4800     223
146.5000     225
146.5200     208
146.5400     193
146.5600     218
146.5800     253
146.6000     253
146.6200     237
146.6400     208
146.6600     180
146.6800     183
146.7000     198
146.7200     208
146.7400     214
146.7600     207
146.7800     197
146.8000     200
146.8200     207
146.8400     206
146.8600     202
146.8800     200
146.9000     194
146.9200     173
146.9400     156
146.9600     197
146.9800     250
147.0000     245
147.0200     220
147.0400     210
147.0600     202
147.0800     177
147.1000     150
147.1200     147
147.1400     155
147.1600     174
147.1800     193
147.2000     184
147.2200     169
147.2400     179
147.2600     202
147.2800     242
147.3000     274
147.3200     236
147.3400     182
147.3600     191
147.3800     218
147.4000     207
147.4200     185
147.4400     188
147.4600     196
147.4800     186
147.5000     177
147.5200     218
147.5400     268
147.5600     271
147.5800     258
147.6000     260
147.6200     265
147.6400     252
147.6600     231
147.6800     208
147.7000     185
147.7200     162
147.7400     148
147.7600     174
147.7800     208
147.8000     202
147.8200     192
147.8400     240
147.8600     301
147.8800     302
147.9000     278
147.9200     241
147.9400     208
147.9600     221
147.9800     247
148.0000     243
148.0200     223
148.0400     180
148.0600     137
148.0800     137
148.1000     154
148.1200     168
148.1400     180
148.1600     190
148.1800     193
148.2000     159
148.2200     127
148.2400     174
148.2600     241
148.2800     256
148.3000     246
148.3200     218
148.3400     184
148.3600     158
148.3800     139
148.4000     137
148.4200     141
148.4400     147
148.4600     155
148.4800     176
148.5000     195
148.5200     179
148.5400     158
148.5600     179
148.5800     212
148.6000     220
148.6200     219
148.6400     226
148.6600     229
148.6800     195
148.7000     162
148.7200     201
148.7400     258
148.7600     260
148.7800     242
148.8000     236
148.8200     227
148.8400     188
148.8600     151
148.8800     189
148.9000     248
148.9200     264
148.9400     259
148.9600     244
148.9800     227
149.0000     225
149.0200     230
149.0400     240
149.0600     248
149.0800     236
149.1000     218
149.1200     210
149.1400     208
149.1600     214
149.1800     227
149.2000     252
149.2200     271
149.2400     240
149.2600     195
149.2800     185
149.3000     187
149.3200     182
149.3400     172
149.3600     149
149.3800     132
149.4000     172
149.4200     224
149.4400     231
149.4600     220
149.4800     217
149.5000     216
149.5200     209
149.5400     199
149.5600     189
149.5800     177
149.6000     160
149.6200     138
149.6400     108
149.6600      82
149.6800      97
149.7000     127
149.7200     142
149.7400     158
149.7600     201
149.7800     245
149.8000     240
149.8200     217
149.8400     199
149.8600     184
149.8800     171
149.9000     161
149.9200     159
149.9400     159
149.9600     147
149.9800     137
150.0000     154
150.0200     181
150.0400     201
150.0600     213
150.0800     195
150.1000     165
150.1200     133
150.1400     116
150.1600     171
150.1800     240
150.2000     236
150.2200     205
150.2400     194
150.2600     187
150.2800     167
150.3000     146
150.3200     153
150.3400     166
150.3600     156
150.3800     140
150.4000     146
150.4200     159
150.4400     167
150.4600     168
150.4800     145
150.5000     119
150.5200     122
150.5400     138
150.5600     169
150.5800     201
150.6000     213
150.6200     215
150.6400     207
150.6600     199
150.6800     213
150.7000     225
150.7200     192
150.7400     148
150.7600     142
150.7800     156
150.8000     188
150.8200     221
150.8400     214
150.8600     193
150.8800     175
150.9000     155
150.9200     115
150.9400      78
150.9600      91
150.9800     123
151.0000     145
151.0200     160
151.0400     158
151.0600     155
151.0800     174
151.1000     191
151.1200     155
151.1400     103
151.1600      81
151.1800      79
151.2000     122
151.2200     174
151.2400     184
151.2600     175
151.2800     153
151.3000     134
151.3200     162
151.3400     197
151.3600     180
151.3800     153
151.4000     183
151.4200     224
151.4400     210
151.4600     176
151.4800     154
151.5000     148
151.5200     203
151.5400     263
151.5600     223
151.5800     156
151.6000     153
151.6200     170
151.6400     163
151.6600     148
151.6800     137
151.7000     128
151.7200     125
151.7400     132
151.7600     173
151.7800     214
151.8000     190
151.8200     152
151.8400     175
151.8600     213
151.8800     201
151.9000     176
151.9200     183
151.9400     195
151.9600     167
151.9800     130
152.0000     128
152.0200     139
152.0400     145
152.0600     148
152.0800     146
152.1000     138
152.1200     108
152.1400      76
152.1600      74
152.1800      87
152.2000     115
152.2200     149
152.2400     181
152.2600     208
152.2800     210
152.3000     206
152.3200     221
152.3400     237
152.3600     224
152.3800     195
152.4000     141
152.4200      90
152.4400     104
152.4600     137
152.4800     130
152.5000     114
152.5200     128
152.5400     150
152.5600     150
152.5800     142
152.6000     133
152.6200     122
152.6400     106
152.6600      93
152.6800     105
152.7000     126
152.7200     143
152.7400     159
152.7600     170
152.7800     180
152.8000     187
152.8200     192
152.8400     195
152.8600     189
152.8800     141
152.9000      89
152.9200      96
152.9400     125
152.9600     150
152.9800     170
153.0000     165
153.0200     156
153.0400     170
153.0600     188
153.0800     173
153.1000     151
153.1200     157
153.1400     170
153.1600     155
153.1800     133
153.2000     136
153.2200     145
153.2400     139
153.2600     130
153.2800     138
153.3000     151
153.3200     159
153.3400     166
153.3600     178
153.3800     192
153.4000     207
153.4200     217
153.4400     192
153.4600     157
153.4800     135
153.5000     121
153.5200     114
153.5400     115
153.5600     141
153.5800     171
153.6000     169
153.6200     158
153.6400     160
153.6600     163
153.6800     141
153.7000     115
153.7200     118
153.7400     130
153.7600     137
153.7800     138
153.8000     126
153.8200     115
153.8400     140
153.8600     181
153.8800     222
153.9000     248
153.9200     192
153.9400     116
153.9600      99
153.9800     105
154.0000     111
154.0200     110
154.0400      75
154.0600      43
154.0800      86
154.1000     150
154.1200     164
154.1400     158
154.1600     149
154.1800     137
154.2000     120
154.2200     105
154.2400     118
154.2600     136
154.2800     124
154.3000     103
154.3200      97
154.3400      98
154.3600     103
154.3800     107
154.4000     106
154.4200     104
154.4400     112
154.4600     121
154.4800     115
154.5000     107
154.5200     119
154.5400     138
154.5600     154
154.5800     166
154.6000     173
154.6200     173
154.6400     151
154.6600     128
154.6800     140
154.7000     164
154.7200     176
154.7400     181
154.7600     166
154.7800     143
154.8000     117
154.8200      91
154.8400      75
154.8600      71
154.8800     109
154.9000     149
154.9200     120
154.9400      77
154.9600      96
154.9800     132
155.0000     130
155.0200     122
155.0400     164
155.0600     209
155.0800     170
155.1000     114
155.1200     138
155.1400     184
155.1600     175
155.1800     150
155.2000     152
155.2200     159
155.2400     143
155.2600     126
155.2800     154
155.3000     188
155.3200     163
155.3400     123
155.3600     120
155.3800     132
155.4000     142
155.4200     149
155.4400     139
155.4600     120
155.4800      81
155.5000      46
155.5200      68
155.5400     106
155.5600     117
155.5800     123
155.6000     156
155.6200     194
155.6400     200
155.6600     192
155.6800     174
155.7000     156
155.7200     156
155.7400     163
155.7600     165
155.7800     168
155.8000     183
155.8200     202
155.8400     218
155.8600     223
155.8800     186
155.9000     136
155.9200     104
155.9400      83
155.9600      76
155.9800      79
156.0000     108
156.0200     138
156.0400     117
156.0600      87
156.0800     122
156.1000     177
156.1200     205
156.1400     217
156.1600     196
156.1800     161
156.2000     126
156.2200      93
156.2400      78
156.2600      78
156.2800     118
156.3000     165
156.3200     167
156.3400     153
156.3600     144
156.3800     137
156.4000     123
156.4200     108
156.4400      95
156.4600      89
156.4800     113
156.5000     141
156.5200     132
156.5400     116
156.5600     139
156.5800     167
156.6000     146
156.6200     116
156.6400     131
156.6600     155
156.6800     131
156.7000      93
156.7200      83
156.7400      88
156.7600     110
156.7800     131
156.8000     115
156.8200      93
156.8400     108
156.8600     135
156.8800     148
156.9000     145
156.9200      84
156.9400      15
156.9600      24
156.9800      59
157.0000      64
157.0200      62
157.0400      82
157.0600     102
157.0800      85
157.1000      62
157.1200      79
157.1400     107
157.1600     105
157.1800      90
157.2000      72
157.2200      57
157.2400      69
157.2600      89
157.2800      99
157.3000     106
157.3200     121
157.3400     139
157.3600     154
157.3800     161
157.4000     136
157.4200     100
157.4400      72
157.4600      54
157.4800      61
157.5000      79
157.5200      95
157.5400     110
157.5600     120
157.5800     128
157.6000     135
157.6200     138
157.6400     127
157.6600     114
157.6800     115
157.7000     118
157.7200     107
157.7400      93
157.7600      89
157.7800      93
157.8000     117
157.8200     144
157.8400     146
157.8600     138
157.8800     125
157.9000     115
157.9200     125
157.9400     137
157.9600     121
157.9800     100
158.0000     117
158.0200     141
158.0400     125
158.0600     101
158.0800     116
158.1000     138
158.1200     123
158.1400     100
158.1600     114
158.1800     134
158.2000     112
158.2200      84
158.2400     104
158.2600     142
158.2800     165
158.3000     178
158.3200     168
158.3400     150
158.3600     144
158.3800     142
158.4000     145
158.4200     145
158.4400     127
158.4600     103
158.4800      89
158.5000      81
158.5200      83
158.5400      94
158.5600     131
158.5800     170
158.6000     159
158.6200     133
158.6400     129
158.6600     131
158.6800     123
158.7000     112
158.7200     108
158.7400     103
158.7600      88
158.7800      76
158.8000     104
158.8200     143
158.8400     157
158.8600     162
158.8800     170
158.9000     177
158.9200     166
158.9400     150
158.9600     149
158.9800     149
159.0000     129
159.0200     103
159.0400      87
159.0600      85
159.0800     136
159.1000     195
159.1200     184
159.1400     147
159.1600     115
159.1800      88
159.2000      76
159.2200      74
159.2400      92
159.2600     113
159.2800     111
159.3000     103
159.3200     117
159.3400     133
159.3600     122
159.3800     104
159.4000     106
159.4200     118
159.4400     137
159.4600     153
159.4800     142
159.5000     123
159.5200     119
159.5400     120
159.5600     114
159.5800     110
159.6000     121
159.6200     135
159.6400     126
159.6600     111
159.6800     114
159.7000     117
159.7200      85
159.7400      50
159.7600      70
159.7800     105
159.8000     102
159.8200      91
159.8400     120
159.8600     155
159.8800     145
159.9000     118
159.9200      94
159.9400      72
159.9600      52
159.9800      39
160.0000      63
160.0200      96
160.0400     109
160.0600     112
160.0800     113
160.1000     116
160.1200     134
160.1400     148
160.1600     111
160.1800      60
160.2000      45
160.2200      54
160.2400     103
160.2600     159
160.2800     162
160.3000     146
160.3200     141
160.3400     135
160.3600      98
160.3800      58
160.4000      68
160.4200     102
160.4400     157
160.4600     207
160.4800     186
160.5000     139
160.5200     110
160.5400      87
160.5600      57
160.5800      35
160.6000      60
160.6200      97
160.6400      99
160.6600      94
160.6800     122
160.7000     157
160.7200     154
160.7400     135
160.7600     116
160.7800      99
160.8000      99
160.8200     102
160.8400      93
160.8600      85
160.8800     109
160.9000     134
160.9200     102
160.9400      56
160.9600      48
160.9800      55
161.0000      52
161.0200      49
161.0400      58
161.0600      69
161.0800      65
161.1000      61
161.1200      92
161.1400     125
161.1600     106
161.1800      79
161.2000     116
161.2200     166
161.2400     157
161.2600     124
161.2800      81
161.3000      50
161.3200      96
161.3400     159
161.3600     160
161.3800     140
161.4000     140
161.4200     142
161.4400     111
161.4600      70
161.4800      47
161.5000      33
161.5200      26
161.5400      23
161.5600      27
161.5800      32
161.6000      37
161.6200      39
161.6400      31
161.6600      25
161.6800      51
161.7000      82
161.7200      78
161.7400      65
161.7600      78
161.7800      96
161.8000      84
161.8200      67
161.8400      80
161.8600     104
161.8800     115
161.9000     123
161.9200     144
161.9400     163
161.9600     147
161.9800     125