File: XRD_Tool/log/LDA_sample_name_01_Psi-24_20180623-132321.txt
143.0000     269
143.0200     277
143.0400     243
143.0600     203
143.0800     215
143.1000     245
143.1200     268
143.1400     281
143.1600     258
143.1800     231
143.2000     260
143.2200     302
143.2400     291
143.2600     268
143.2800     290
143.3000     320
143.3200     300
143.3400     260
143.3600     223
143.3800     195
143.4000     207
143.4200     228
143.4400     213
143.4600     192
143.4800     219
143.5000     263
143.5200     294
143.5400     305
143.5600     242
143.5800     162
143.6000     142
143.6200     146
143.6400     147
143.6600     156
143.6800     210
143.7000     265
143.7200     237
143.7400     183
143.7600     172
143.7800     182
143.8000     214
143.8200     244
143.8400     226
143.8600     194
143.8800     193
143.9000     201
143.9200     189
143.9400     171
143.9600     158
143.9800     159
144.0000     213
144.0200     279
144.0400     295
144.0600     292
144.0800     289
144.1000     282
144.1200     248
144.1400     218
144.1600     255
144.1800     309
144.2000     311
144.2200     287
144.2400     233
144.2600     177
144.2800     171
144.3000     182
144.3200     178
144.3400     168
144.3600     160
144.3800     159
144.4000     191
144.4200     235
144.4400     269
144.4600     291
144.4800     275
144.5000     243
144.5200     214
144.5400     191
144.5600     188
144.5800     197
144.6000     223
144.6200     243
144.6400     203
144.6600     155
144.6800     187
144.7000     240
144.7200     238
144.7400     215
144.7600     195
144.7800     184
144.8000     208
144.8200     239
144.8400     232
144.8600     210
144.8800     191
144.9000     181
144.9200     211
144.9400     245
144.9600     221
144.9800     183
145.0000     195
145.0200     214
145.0400     171
145.0600     116
145.0800     125
145.1000     156
145.1200     173
145.1400     188
145.1600     215
145.1800     245
145.2000     267
145.2200     267
145.2400     182
145.2600      86
145.2800     112
145.3000     179
145.3200     211
145.3400     224
145.3600     217
145.3800     205
145.4000     215
145.4200     231
145.4400     237
145.4600     233
145.4800     204
145.5000     170
145.5200     168
145.5400     180
145.5600     202
145.5800     223
145.6000     220
145.6200     214
145.6400     238
145.6600     267
145.6800     261
145.7000     239
145.7200     204
145.7400     175
145.7600     203
145.7800     244
145.8000     241
145.8200     226
145.8400     233
145.8600     248
145.8800     261
145.9000     270
145.9200     259
145.9400     243
145.9600     234
145.9800     231
146.0000     244
146.0200     255
146.0400     216
146.0600     162
146.0800     128
146.1000     111
146.1200     139
146.1400     183
146.1600     214
146.1800     238
146.2000     252
146.2200     256
146.2400     235
146.2600     206
146.2800     192
146.3000     189
146.3200     211
146.3400     236
146.3600     224
146.3800     203
146.4000     207
146.4200     215
146.4400     190
146.4600     158
146.4800     159
146.5000     171
146.5200     173
146.5400     179
146.5600     225
146.5800     274
146.6000     255
146.6200     217
146.6400     220
146.6600     238
146.6800     246
146.7000     247
146.7200     228
146.7400     204
146.7600     187
146.7800     175
146.8000     178
146.8200     183
146.8400     171
146.8600     157
146.8800     161
146.9000     177
146.9200     213
146.9400     251
146.9600     259
146.9800     253
147.0000     237
147.0200     221
147.0400     222
147.0600     224
147.0800     194
147.1000     165
147.1200     199
147.1400     245
147.1600     221
147.1800     177
147.2000     168
147.2200     177
147.2400     201
147.2600     227
147.2800     230
147.3000     226
147.3200     233
147.3400     239
147.3600     210
147.3800     176
147.4000     180
147.4200     197
147.4400     196
147.4600     192
147.4800     211
147.5000     232
147.5200     213
147.5400     181
147.5600     159
147.5800     149
147.6000     176
147.6200     215
147.6400     244
147.6600     265
147.6800     273
147.7000     266
147.7200     219
147.7400     170
147.7600     199
147.7800     252
147.8000     270
147.8200     270
147.8400     247
147.8600     224
147.8800     246
147.9000     273
147.9200     233
147.9400     179
147.9600     182
147.9800     206
148.0000     220
148.0200     224
148.0400     203
148.0600     170
148.0800     134
148.1000     101
148.1200      98
148.1400     115
148.1600     175
148.1800     238
148.2000     224
148.2200     188
148.2400     191
148.2600     209
148.2800     232
148.3000     249
148.3200     229
148.3400     197
148.3600     177
148.3800     161
148.4000     145
148.4200     133
148.4400     139
148.4600     157
148.4800     195
148.5000     232
148.5200     222
148.5400     197
148.5600     182
148.5800     181
148.6000     223
148.6200     274
148.6400     277
148.6600     258
148.6800     222
148.7000     186
148.7200     180
148.7400     187
148.7600     197
148.7800     210
148.8000     225
148.8200     238
148.8400     238
148.8600     236
148.8800     259
148.9000     282
148.9200     258
148.9400     217
148.9600     178
148.9800     155
149.0000     212
149.0200     288
149.0400     304
149.0600     288
149.0800     235
149.1000     184
149.1200     218
149.1400     270
149.1600     242
149.1800     195
149.2000     208
149.2200     233
149.2400     191
149.2600     132
149.2800     117
149.3000     125
149.3200     163
149.3400     213
149.3600     264
149.3800     308
149.4000     307
149.4200     286
149.4400     252
149.4600     215
149.4800     193
149.5000     180
149.5200     184
149.5400     189
149.5600     169
149.5800     148
149.6000     173
149.6200     210
149.6400     211
149.6600     199
149.6800     202
149.7000     210
149.7200     220
149.7400     229
149.7600     238
149.7800     239
149.8000     208
149.8200     168
149.8400     148
149.8600     145
149.8800     187
149.9000     234
149.9200     213
149.9400     177
149.9600     204
149.9800     252
150.0000     275
150.0200     285
150.0400     272
150.0600     250
150.0800     231
150.1000     217
150.1200     223
150.1400     236
150.1600     241
150.1800     242
150.2000     241
150.2200     233
150.2400     197
150.2600     161
150.2800     187
150.3000     228
150.3200     224
150.3400     201
150.3600     173
150.3800     152
150.4000     181
150.4200     223
150.4400     237
150.4600     236
150.4800     223
150.5000     209
150.5200     217
150.5400     234
150.5600     254
150.5800     279
150.6000     317
150.6200     344
150.6400     281
150.6600     198
150.6800     190
150.7000     212
150.7200     231
150.7400     243
150.7600     225
150.7800     203
150.8000     224
150.8200     253
150.8400     235
150.8600     203
150.8800     186
150.9000     179
150.9200     187
150.9400     200
150.9600     210
150.9800     224
151.0000     268
151.0200     309
151.0400     277
151.0600     227
151.0800     240
151.1000     270
151.1200     258
151.1400     238
151.1600     257
151.1800     284
151.2000     277
151.2200     262
151.2400     267
151.2600     276
151.2800     258
151.3000     238
151.3200     253
151.3400     274
151.3600     248
151.3800     212
151.4000     213
151.4200     230
151.4400     254
151.4600     274
151.4800     269
151.5000     249
151.5200     211
151.5400     175
151.5600     189
151.5800     213
151.6000     190
151.6200     158
151.6400     178
151.6600     214
151.6800     233
151.7000     242
151.7200     233
151.7400     214
151.7600     178
151.7800     148
151.8000     175
151.8200     218
151.8400     231
151.8600     231
151.8800     233
151.9000     231
151.9200     212
151.9400     190
151.9600     185
151.9800     185
152.0000     175
152.0200     166
152.0400     185
152.0600     202
152.0800     151
152.1000      86
152.1200      89
152.1400     124
152.1600     184
152.1800     242
152.2000     240
152.2200     217
152.2400     211
152.2600     211
152.2800     214
152.3000     218
152.3200     219
152.3400     219
152.3600     221
152.3800     217
152.4000     186
152.4200     144
152.4400      99
152.4600      70
152.4800     126
152.5000     205
152.5200     234
152.5400     242
152.5600     252
152.5800     261
152.6000     270
152.6200     280
152.6400     302
152.6600     318
152.6800     284
152.7000     231
152.7200     186
152.7400     152
152.7600     158
152.7800     177
152.8000     181
152.8200     183
152.8400     203
152.8600     226
152.8800     221
152.9000     208
152.9200     212
152.9400     224
152.9600     246
152.9800     261
153.0000     221
153.0200     172
153.0400     189
153.0600     233
153.0800     276
153.1000     305
153.1200     272
153.1400     224
153.1600     224
153.1800     240
153.2000     233
153.2200     219
153.2400     218
153.2600     222
153.2800     225
153.3000     226
153.3200     225
153.3400     224
153.3600     228
153.3800     234
153.4000     238
153.4200     239
153.4400     224
153.4600     204
153.4800     195
153.5000     196
153.5200     221
153.5400     249
153.5600     247
153.5800     239
153.6000     261
153.6200     288
153.6400     285
153.6600     263
153.6800     213
153.7000     164
153.7200     185
153.7400     220
153.7600     192
153.7800     159
153.8000     231
153.8200     327
153.8400     334
153.8600     307
153.8800     280
153.9000     252
153.9200     212
153.9400     180
153.9600     208
153.9800     251
154.0000     244
154.0200     224
154.0400     231
154.0600     248
154.0800     265
154.1000     275
154.1200     257
154.1400     230
154.1600     218
154.1800     211
154.2000     199
154.2200     190
154.2400     206
154.2600     227
154.2800     228
154.3000     219
154.3200     203
154.3400     187
154.3600     183
154.3800     187
154.4000     214
154.4200     242
154.4400     230
154.4600     201
154.4800     166
154.5000     138
154.5200     165
154.5400     203
154.5600     193
154.5800     170
154.6000     182
154.6200     206
154.6400     223
154.6600     235
154.6800     234
154.7000     225
154.7200     201
154.7400     177
154.7600     183
154.7800     199
154.8000     205
154.8200     203
154.8400     186
154.8600     165
154.8800     157
154.9000     158
154.9200     174
154.9400     198
154.9600     229
154.9800     253
155.0000     228
155.0200     192
155.0400     196
155.0600     216
155.0800     233
155.1000     244
155.1200     233
155.1400     214
155.1600     197
155.1800     180
155.2000     160
155.2200     141
155.2400     140
155.2600     146
155.2800     152
155.3000     164
155.3200     208
155.3400     255
155.3600     260
155.3800     248
155.4000     236
155.4200     229
155.4400     242
155.4600     263
155.4800     277
155.5000     282
155.5200     249
155.5400     205
155.5600     181
155.5800     166
155.6000     154
155.6200     140
155.6400     108
155.6600      84
155.6800     138
155.7000     206
155.7200     186
155.7400     142
155.7600     158
155.7800     193
155.8000     203
155.8200     199
155.8400     177
155.8600     151
155.8800     148
155.9000     157
155.9200     181
155.9400     202
155.9600     180
155.9800     149
156.0000     161
156.0200     180
156.0400     146
156.0600     103
156.0800     125
156.1000     167
156.1200     182
156.1400     191
156.1600     224
156.1800     260
156.2000     267
156.2200     261
156.2400     245
156.2600     222
156.2800     184
156.3000     145
156.3200     130
156.3400     130
156.3600     161
156.3800     199
156.4000     207
156.4200     204
156.4400     203
156.4600     204
156.4800     212
156.5000     215
156.5200     184
156.5400     151
156.5600     173
156.5800     216
156.6000     254
156.6200     283
156.6400     272
156.6600     243
156.6800     201
156.7000     158
156.7200     143
156.7400     140
156.7600     137
156.7800     137
156.8000     147
156.8200     160
156.8400     170
156.8600     171
156.8800     139
156.9000     101
156.9200     108
156.9400     135
156.9600     175
156.9800     215
157.0000     222
157.0200     217
157.0400     222
157.0600     224
157.0800     196
157.1000     163
157.1200     167
157.1400     184
157.1600     201
157.1800     212
157.2000     198
157.2200     180
157.2400     192
157.2600     221
157.2800     275
157.3000     321
157.3200     280
157.3400     211
157.3600     177
157.3800     161
157.4000     162
157.4200     172
157.4400     190
157.4600     205
157.4800     185
157.5000     157
157.5200     159
157.5400     164
157.5600     124
157.5800      82
157.6000     122
157.6200     183
157.6400     192
157.6600     184
157.6800     193
157.7000     210
157.7200     235
157.7400     254
157.7600     228
157.7800     194
157.8000     205
157.8200     222
157.8400     176
157.8600     110
157.8800      77
157.9000      65
157.9200      90
157.9400     130
157.9600     173
157.9800     209
158.0000     202
158.0200     183
158.0400     191
158.0600     208
158.0800     225
158.1000     232
158.1200     194
158.1400     146
158.1600     136
158.1800     146
158.2000     176
158.2200     206
158.2400     194
158.2600     167
158.2800     142
158.3000     127
158.3200     160
158.3400     204
158.3600     203
158.3800     193
158.4000     225
158.4200     263
158.4400     251
158.4600     219
158.4800     189
158.5000     162
158.5200     155
158.5400     158
158.5600     174
158.5800     196
158.6000     216
158.6200     229
158.6400     202
158.6600     163
158.6800     141
158.7000     134
158.7200     172
158.7400     215
158.7600     195
158.7800     159
158.8000     173
158.8200     201
158.8400     204
158.8600     192
158.8800     163
158.9000     137
158.9200     161
158.9400     197
158.9600     188
158.9800     163
159.0000     145
159.0200     136
159.0400     165
159.0600     202
159.0800     203
159.1000     188
159.1200     171
159.1400     162
159.1600     200
159.1800     241
159.2000     205
159.2200     153
159.2400     169
159.2600     212
159.2800     245
159.3000     265
159.3200     235
159.3400     196
159.3600     210
159.3800     243
159.4000     261
159.4200     267
159.4400     238
159.4600     212
159.4800     264
159.5000     334
159.5200     329
159.5400     296
159.5600     265
159.5800     233
159.6000     196
159.6200     162
159.6400     160
159.6600     164
159.6800     143
159.7000     121
159.7200     149
159.7400     188
159.7600     185
159.7800     177
159.8000     226
159.8200     282
159.8400     258
159.8600     212
159.8800     219
159.9000     236
159.9200     198
159.9400     149
159.9600     154
159.9800     172
160.0000     155
160.0200     132
160.0400     157
160.0600     203
160.0800     254
160.1000     297
160.1200     282
160.1400     247
160.1600     232
160.1800     219
160.2000     181
160.2200     144
160.2400     160
160.2600     196
160.2800     220
160.3000     229
160.3200     183
160.3400     131
160.3600     154
160.3800     202
160.4000     218
160.4200     221
160.4400     219
160.4600     214
160.4800     201
160.5000     187
160.5200     186
160.5400     192
160.5600     203
160.5800     212
160.6000     196
160.6200     175
160.6400     177
160.6600     184
160.6800     161
160.7000     136
160.7200     154
160.7400     183
160.7600     174
160.7800     150
160.8000     126
160.8200     113
160.8400     155
160.8600     200
160.8800     152
160.9000      84
160.9200     106
160.9400     154
160.9600     153
160.9800     139
161.0000     155
161.0200     179
161.0400     180
161.0600     174
161.0800     176
161.1000     176
161.1200     148
161.1400     114
161.1600     113
161.1800     127
161.2000     151
161.2200     176
161.2400     185
161.2600     188
161.2800     196
161.3000     203
161.3200     200
161.3400     192
161.3600     182
161.3800     179
161.4000     209
161.4200     240
161.4400     205
161.4600     148
161.4800     117
161.5000     101
161.5200     105
161.5400     116
161.5600     121
161.5800     120
161.6000     109
161.6200      96
161.6400      96
161.6600     105
161.6800     126
161.7000     146
161.7200     139
161.7400     124
161.7600     122
161.7800     129
161.8000     148
161.8200     175
161.8400     220
161.8600     256
161.8800     212
161.9000     145
161.9200     120
161.9400     114
161.9600     120
161.9800     126
162.0000     115
162.0200     107
162.0400     146
162.0600     188
162.0800     150
162.1000      92
162.1200      95
162.1400     120
162.1600     125
162.1800     122
162.2000     111
162.2200     100
162.2400     107
162.2600     122
162.2800     139
162.3000     153
162.3200     152
162.3400     145
162.3600     141
162.3800     144
162.4000     169
162.4200     193
162.4400     168
162.4600     126
162.4800      93
162.5000      72
162.5200     101
162.5400     143
162.5600     155
162.5800     155
162.6000     158
162.6200     161
162.6400     158
162.6600     156
162.6800     179
162.7000     202
162.7200     180
162.7400     152
162.7600     187
162.7800     240
162.8000     255
162.8200     251
162.8400     225
162.8600     195
162.8800     185
162.9000     183
162.9200     183
162.9400     184
162.9600     190
162.9800     197
163.0000     197
163.0200     191
163.0400     163
163.0600     137
163.0800     160
163.1000     190
163.1200     161
163.1400     119
163.1600     124
163.1800     143
163.2000     135
163.2200     122
163.2400     132
163.2600     147
163.2800     134
163.3000     115
163.3200     123
163.3400     135
163.3600     120
163.3800     102
163.4000     121
163.4200     154
163.4400     182
163.4600     200
163.4800     178
163.5000     146
163.5200     145
163.5400     158
163.5600     171
163.5800     181
163.6000     171
163.6200     154
163.6400     139
163.6600     129
163.6800     144
163.7000     163
163.7200     160
163.7400     149
163.7600     142
163.7800     137
163.8000     140
163.8200     144
163.8400     136
163.8600     128
163.8800     137
163.9000     150
163.9200     151
163.9400     151
163.9600     166
163.9800     182
164.0000     170
164.0200     154
164.0400     180
164.0600     211
164.0800     187
164.1000     152
164.1200     175
164.1400     219
164.1600     251
164.1800     266
164.2000     213
164.2200     146
164.2400     147
164.2600     169
164.2800     156
164.3000     131
164.3200     111
164.3400     102
164.3600     140
164.3800     182
164.4000     154
164.4200     113
164.4400     147
164.4600     200
164.4800     201
164.5000     177
164.5200     132
164.5400      84
164.5600      69
164.5800      67
164.6000      67
164.6200      69
164.6400      83
164.6600     101
164.6800     119
164.7000     132
164.7200     125
164.7400     109
164.7600      91
164.7800      80
164.8000     106
164.8200     134
164.8400     100
164.8600      54
164.8800      68
164.9000      99
164.9200      92
164.9400      75
164.9600      84
164.9800     100
165.0000      91
165.0200      76
165.0400      78
165.0600      87
165.0800     101
165.1000     118
165.1200     138
165.1400     152
165.1600     126
165.1800      91
165.2000      88
165.2200     102
165.2400     139
165.2600     178
165.2800     180
165.3000     168
165.3200     155
165.3400     144
165.3600     149
165.3800     160
165.4000     163
165.4200     163
165.4400     166
165.4600     163
165.4800     120
165.5000      78
165.5200     114
165.5400     171
165.5600     172
165.5800     154
165.6000     157
165.6200     166
165.6400     157
165.6600     143
165.6800     137
165.7000     134
165.7200     128
165.7400     120
165.7600     114
165.7800     103
165.8000      68
165.8200      38
165.8400      78
165.8600     130
165.8800     102
165.9000      60
165.9200     108
165.9400     174
165.9600     147
165.9800      95
166.0000     106
166.0200     144
166.0400     191
166.0600     221
166.0800     151
166.1000      57
166.1200      48
166.1400      70
166.1600      85
166.1800      93
166.2000      80
166.2200      62
166.2400      65
166.2600      85
166.2800     140
166.3000     191
166.3200     149
166.3400      82
166.3600      80
166.3800     104
166.4000     128
166.4200     145
166.4400     130
166.4600     105
166.4800      92
166.5000      90
166.5200     120
166.5400     154
166.5600     149
166.5800     127
166.6000      95
166.6200      67
166.6400      76
166.6600      94
166.6800      80
166.7000      62
166.7200      82
166.7400     114
166.7600     126
166.7800     132
166.8000     147
166.8200     157
166.8400     132
166.8600     100
166.8800     108
166.9000     125
166.9200     110
166.9400      93
166.9600     130
166.9800     176