File: XRD_Tool/log/LDA_sample_name_01_Psi-35_20180623-132334.txt
143.0000     248
143.0200     223
143.0400     223
143.0600     227
143.0800     201
143.1000     176
143.1200     214
143.1400     267
143.1600     267
143.1800     246
143.2000     233
143.2200     222
143.2400     201
143.2600     180
143.2800     171
143.3000     179
143.3200     247
143.3400     322
143.3600     313
143.3800     273
143.4000     243
143.4200     225
143.4400     247
143.4600     275
143.4800     250
143.5000     212
143.5200     216
143.5400     229
143.5600     212
143.5800     188
143.6000     192
143.6200     201
143.6400     172
143.6600     139
143.6800     164
143.7000     208
143.7200     230
143.7400     249
143.7600     292
143.7800     335
143.8000     334
143.8200     315
143.8400     288
143.8600     255
143.8800     207
143.9000     165
143.9200     186
143.9400     226
143.9600     235
143.9800     223
144.0000     172
144.0200     119
144.0400     126
144.0600     159
144.0800     195
144.1000     228
144.1200     233
144.1400     231
144.1600     249
144.1800     264
144.2000     227
144.2200     186
144.2400     230
144.2600     290
144.2800     257
144.3000     201
144.3200     213
144.3400     247
144.3600     248
144.3800     233
144.4000     206
144.4200     176
144.4400     158
144.4600     146
144.4800     144
144.5000     147
144.5200     153
144.5400     164
144.5600     190
144.5800     219
144.6000     233
144.6200     236
144.6400     212
144.6600     190
144.6800     228
144.7000     275
144.7200     242
144.7400     195
144.7600     233
144.7800     292
144.8000     283
144.8200     255
144.8400     270
144.8600     295
144.8800     282
144.9000     255
144.9200     234
144.9400     214
144.9600     183
144.9800     153
145.0000     158
145.0200     180
145.0400     220
145.0600     258
145.0800     246
145.1000     216
145.1200     196
145.1400     186
145.1600     206
145.1800     237
145.2000     263
145.2200     281
145.2400     267
145.2600     240
145.2800     208
145.3000     177
145.3200     161
145.3400     156
145.3600     171
145.3800     190
145.4000     184
145.4200     171
145.4400     175
145.4600     180
145.4800     162
145.5000     135
145.5200     114
145.5400     108
145.5600     157
145.5800     217
145.6000     219
145.6200     199
145.6400     189
145.6600     189
145.6800     219
145.7000     252
145.7200     240
145.7400     216
145.7600     224
145.7800     241
145.8000     244
145.8200     241
145.8400     228
145.8600     214
145.8800     208
145.9000     203
145.9200     182
145.9400     164
145.9600     201
145.9800     247
146.0000     236
146.0200     208
146.0400     207
146.0600     213
146.0800     197
146.1000     184
146.1200     224
146.1400     276
146.1600     278
146.1800     260
146.2000     239
146.2200     214
146.2400     177
146.2600     147
146.2800     176
146.3000     223
146.3200     250
146.3400     261
146.3600     237
146.3800     206
146.4000     210
146.4200     218
146.4400     176
146.4600     137
146.4800     211
146.5000     311
146.5200     308
146.5400     263
146.5600     218
146.5800     178
146.6000     170
146.6200     170
146.6400     153
146.6600     134
146.6800     138
146.7000     152
146.7200     163
146.7400     179
146.7600     228
146.7800     273
146.8000     232
146.8200     168
146.8400     165
146.8600     186
146.8800     197
146.9000     209
146.9200     238
146.9400     272
146.9600     299
146.9800     314
147.0000     286
147.0200     248
147.0400     250
147.0600     255
147.0800     195
147.1000     131
147.1200     180
147.1400     255
147.1600     235
147.1800     188
147.2000     191
147.2200     217
147.2400     251
147.2600     281
147.2800     270
147.3000     246
147.3200     243
147.3400     246
147.3600     233
147.3800     213
147.4000     194
147.4200     185
147.4400     218
147.4600     256
147.4800     237
147.5000     202
147.5200     201
147.5400     211
147.5600     211
147.5800     208
147.6000     210
147.6200     211
147.6400     202
147.6600     198
147.6800     246
147.7000     303
147.7200     306
147.7400     286
147.7600     256
147.7800     230
147.8000     239
147.8200     251
147.8400     200
147.8600     136
147.8800     135
147.9000     160
147.9200     187
147.9400     215
147.9600     244
147.9800     264
148.0000     229
148.0200     188
148.0400     220
148.0600     274
148.0800     285
148.1000     280
148.1200     280
148.1400     278
148.1600     254
148.1800     225
148.2000     209
148.2200     203
148.2400     214
148.2600     230
148.2800     239
148.3000     244
148.3200     244
148.3400     238
148.3600     209
148.3800     181
148.4000     205
148.4200     238
148.4400     217
148.4600     176
148.4800     140
148.5000     113
148.5200     116
148.5400     134
148.5600     160
148.5800     182
148.6000     164
148.6200     141
148.6400     172
148.6600     222
148.6800     267
148.7000     290
148.7200     220
148.7400     129
148.7600     128
148.7800     164
148.8000     210
148.8200     249
148.8400     231
148.8600     199
148.8800     205
148.9000     226
148.9200     239
148.9400     245
148.9600     234
148.9800     222
149.0000     237
149.0200     264
149.0400     298
149.0600     326
149.0800     317
149.1000     292
149.1200     262
149.1400     240
149.1600     268
149.1800     307
149.2000     299
149.2200     276
149.2400     265
149.2600     259
149.2800     251
149.3000     245
149.3200     249
149.3400     256
149.3600     260
149.3800     259
149.4000     243
149.4200     226
149.4400     236
149.4600     244
149.4800     193
149.5000     134
149.5200     145
149.5400     188
149.5600     244
149.5800     295
149.6000     286
149.6200     260
149.6400     261
149.6600     264
149.6800     222
149.7000     168
149.7200     147
149.7400     144
149.7600     164
149.7800     190
149.8000     193
149.8200     187
149.8400     184
149.8600     183
149.8800     184
149.9000     191
149.9200     221
149.9400     257
149.9600     270
149.9800     267
150.0000     234
150.0200     202
150.0400     242
150.0600     292
150.0800     252
150.1000     191
150.1200     210
150.1400     252
150.1600     254
150.1800     250
150.2000     299
150.2200     346
150.2400     278
150.2600     184
150.2800     187
150.3000     212
150.3200     155
150.3400      83
150.3600     100
150.3800     149
150.4000     188
150.4200     219
150.4400     237
150.4600     248
150.4800     254
150.5000     252
150.5200     225
150.5400     190
150.5600     173
150.5800     172
150.6000     215
150.6200     260
150.6400     233
150.6600     188
150.6800     200
150.7000     231
150.7200     249
150.7400     256
150.7600     239
150.7800     218
150.8000     217
150.8200     228
150.8400     252
150.8600     273
150.8800     246
150.9000     200
150.9200     156
150.9400     126
150.9600     167
150.9800     229
151.0000     248
151.0200     245
151.0400     217
151.0600     180
151.0800     151
151.1000     137
151.1200     180
151.1400     238
151.1600     256
151.1800     257
151.2000     251
151.2200     245
151.2400     247
151.2600     249
151.2800     226
151.3000     196
151.3200     173
151.3400     159
151.3600     180
151.3800     207
151.4000     202
151.4200     184
151.4400     163
151.4600     153
151.4800     205
151.5000     268
151.5200     269
151.5400     251
151.5600     263
151.5800     279
151.6000     255
151.6200     221
151.6400     215
151.6600     220
151.6800     219
151.7000     211
151.7200     183
151.7400     154
151.7600     163
151.7800     191
151.8000     237
151.8200     282
151.8400     281
151.8600     259
151.8800     230
151.9000     203
151.9200     199
151.9400     203
151.9600     194
151.9800     185
152.0000     204
152.0200     225
152.0400     200
152.0600     161
152.0800     147
152.1000     149
152.1200     181
152.1400     219
152.1600     230
152.1800     228
152.2000     216
152.2200     208
152.2400     238
152.2600     273
152.2800     248
152.3000     211
152.3200     227
152.3400     257
152.3600     247
152.3800     221
152.4000     192
152.4200     167
152.4400     169
152.4600     183
152.4800     212
152.5000     242
152.5200     252
152.5400     251
152.5600     233
152.5800     210
152.6000     190
152.6200     172
152.6400     151
152.6600     139
152.6800     180
152.7000     234
152.7200     247
152.7400     241
152.7600     228
152.7800     218
152.8000     240
152.8200     261
152.8400     219
152.8600     158
152.8800     135
152.9000     126
152.9200     109
152.9400      97
152.9600     126
152.9800     171
153.0000     211
153.0200     241
153.0400     226
153.0600     203
153.0800     227
153.1000     257
153.1200     227
153.1400     182
153.1600     182
153.1800     203
153.2000     237
153.2200     269
153.2400     258
153.2600     228
153.2800     188
153.3000     162
153.3200     231
153.3400     316
153.3600     294
153.3800     234
153.4000     191
153.4200     160
153.4400     159
153.4600     171
153.4800     195
153.5000     217
153.5200     214
153.5400     202
153.5600     200
153.5800     199
153.6000     183
153.6200     165
153.6400     167
153.6600     182
153.6800     224
153.7000     266
153.7200     261
153.7400     239
153.7600     229
153.7800     226
153.8000     236
153.8200     247
153.8400     231
153.8600     206
153.8800     186
153.9000     175
153.9200     194
153.9400     219
153.9600     206
153.9800     183
154.0000     185
154.0200     194
154.0400     191
154.0600     185
154.0800     191
154.1000     198
154.1200     192
154.1400     183
154.1600     194
154.1800     209
154.2000     211
154.2200     204
154.2400     187
154.2600     167
154.2800     159
154.3000     158
154.3200     177
154.3400     200
154.3600     208
154.3800     207
154.4000     189
154.4200     174
154.4400     202
154.4600     239
154.4800     228
154.5000     202
154.5200     199
154.5400     205
154.5600     206
154.5800     207
154.6000     210
154.6200     213
154.6400     211
154.6600     208
154.6800     210
154.7000     212
154.7200     209
154.7400     205
154.7600     209
154.7800     215
154.8000     211
154.8200     205
154.8400     207
154.8600     213
154.8800     219
154.9000     220
154.9200     193
154.9400     165
154.9600     187
154.9800     225
155.0000     241
155.0200     243
155.0400     213
155.0600     179
155.0800     184
155.1000     197
155.1200     176
155.1400     146
155.1600     135
155.1800     135
155.2000     158
155.2200     181
155.2400     161
155.2600     131
155.2800     144
155.3000     174
155.3200     199
155.3400     215
155.3600     188
155.3800     155
155.4000     180
155.4200     218
155.4400     204
155.4600     177
155.4800     185
155.5000     209
155.5200     238
155.5400     263
155.5600     253
155.5800     235
155.6000     247
155.6200     267
155.6400     269
155.6600     255
155.6800     204
155.7000     152
155.7200     167
155.7400     212
155.7600     272
155.7800     319
155.8000     274
155.8200     206
155.8400     207
155.8600     228
155.8800     214
155.9000     187
155.9200     168
155.9400     155
155.9600     155
155.9800     161
156.0000     167
156.0200     175
156.0400     192
156.0600     210
156.0800     221
156.1000     225
156.1200     211
156.1400     195
156.1600     211
156.1800     233
156.2000     228
156.2200     209
156.2400     177
156.2600     142
156.2800     120
156.3000     111
156.3200     137
156.3400     172
156.3600     184
156.3800     185
156.4000     179
156.4200     174
156.4400     182
156.4600     198
156.4800     224
156.5000     248
156.5200     239
156.5400     214
156.5600     176
156.5800     136
156.6000     119
156.6200     116
156.6400     138
156.6600     170
156.6800     204
156.7000     230
156.7200     219
156.7400     199
156.7600     206
156.7800     221
156.8000     221
156.8200     218
156.8400     228
156.8600     240
156.8800     230
156.9000     220
156.9200     245
156.9400     274
156.9600     250
156.9800     204
157.0000     156
157.0200     127
157.0400     191
157.0600     274
157.0800     259
157.1000     215
157.1200     221
157.1400     241
157.1600     231
157.1800     217
157.2000     245
157.2200     279
157.2400     268
157.2600     237
157.2800     204
157.3000     183
157.3200     224
157.3400     270
157.3600     218
157.3800     144
157.4000     165
157.4200     211
157.4400     197
157.4600     164
157.4800     159
157.5000     166
157.5200     177
157.5400     184
157.5600     169
157.5800     153
157.6000     174
157.6200     205
157.6400     211
157.6600     206
157.6800     199
157.7000     194
157.7200     201
157.7400     211
157.7600     214
157.7800     215
157.8000     223
157.8200     229
157.8400     213
157.8600     195
157.8800     205
157.9000     230
157.9200     269
157.9400     300
157.9600     269
157.9800     225
158.0000     238
158.0200     268
158.0400     269
158.0600     256
158.0800     223
158.1000     193
158.1200     213
158.1400     236
158.1600     176
158.1800     100
158.2000     112
158.2200     158
158.2400     196
158.2600     226
158.2800     238
158.3000     238
158.3200     221
158.3400     204
158.3600     219
158.3800     241
158.4000     234
158.4200     219
158.4400     218
158.4600     218
158.4800     201
158.5000     179
158.5200     164
158.5400     159
158.5600     189
158.5800     224
158.6000     219
158.6200     203
158.6400     220
158.6600     241
158.6800     214
158.7000     177
158.7200     187
158.7400     210
158.7600     208
158.7800     190
158.8000     143
158.8200     100
158.8400     129
158.8600     177
158.8800     177
158.9000     156
158.9200     130
158.9400     110
158.9600     133
158.9800     167
159.0000     171
159.0200     165
159.0400     171
159.0600     185
159.0800     219
159.1000     252
159.1200     240
159.1400     215
159.1600     218
159.1800     225
159.2000     197
159.2200     163
159.2400     169
159.2600     187
159.2800     185
159.3000     176
159.3200     167
159.3400     164
159.3600     183
159.3800     210
159.4000     233
159.4200     242
159.4400     186
159.4600     115
159.4800      99
159.5000     105
159.5200     110
159.5400     118
159.5600     146
159.5800     183
159.6000     225
159.6200     258
159.6400     236
159.6600     191
159.6800     144
159.7000     117
159.7200     193
159.7400     288
159.7600     267
159.7800     209
159.8000     202
159.8200     215
159.8400     223
159.8600     233
159.8800     258
159.9000     279
159.9200     247
159.9400     196
159.9600     162
159.9800     141
160.0000     158
160.0200     185
160.0400     184
160.0600     173
160.0800     172
160.1000     171
160.1200     153
160.1400     137
160.1600     161
160.1800     193
160.2000     185
160.2200     165
160.2400     162
160.2600     169
160.2800     191
160.3000     212
160.3200     199
160.3400     177
160.3600     174
160.3800     169
160.4000     122
160.4200      75
160.4400     111
160.4600     179
160.4800     236
160.5000     272
160.5200     231
160.5400     168
160.5600     150
160.5800     145
160.6000     112
160.6200      83
160.6400     129
160.6600     190
160.6800     181
160.7000     149
160.7200     149
160.7400     160
160.7600     171
160.7800     178
160.8000     172
160.8200     159
160.8400     144
160.8600     137
160.8800     173
160.9000     217
160.9200     211
160.9400     188
160.9600     180
160.9800     184
161.0000     218
161.0200     250
161.0400     211
161.0600     151
161.0800     134
161.1000     132
161.1200     120
161.1400     114
161.1600     155
161.1800     202
161.2000     185
161.2200     147
161.2400     129
161.2600     132
161.2800     200
161.3000     279
161.3200     278
161.3400     248
161.3600     228
161.3800     210
161.4000     184
161.4200     154
161.4400     127
161.4600     109
161.4800     130
161.5000     168
161.5200     217
161.5400     258
161.5600     234
161.5800     193
161.6000     197
161.6200     213
161.6400     194
161.6600     162
161.6800     130
161.7000     104
161.7200     105
161.7400     123
161.7600     172
161.7800     224
161.8000     225
161.8200     206
161.8400     195
161.8600     188
161.8800     183
161.9000     172
161.9200     126
161.9400      77
161.9600      88
161.9800     116
162.0000     112
162.0200     103
162.0400     127
162.0600     153
162.0800     114
162.1000      65
162.1200      88
162.1400     131
162.1600     132
162.1800     117
162.2000     109
162.2200     110
162.2400     144
162.2600     183
162.2800     177
162.3000     158
162.3200     164
162.3400     174
162.3600     152
162.3800     123
162.4000     119
162.4200     127
162.4400     144
162.4600     160
162.4800     161
162.5000     156
162.5200     154
162.5400     153
162.5600     149
162.5800     144
162.6000     146
162.6200     149
162.6400     152
162.6600     155
162.6800     166
162.7000     179
162.7200     182
162.7400     180
162.7600     165
162.7800     146
162.8000     132
162.8200     125
162.8400     148
162.8600     174
162.8800     162
162.9000     135
162.9200     114
162.9400     104
162.9600     131
162.9800     167
163.0000     175
163.0200     171
163.0400     172
163.0600     169
163.0800     144
163.1000     115
163.1200     111
163.1400     124
163.1600     171
163.1800     221
163.2000     222
163.2200     204
163.2400     183
163.2600     163
163.2800     153
163.3000     147
163.3200     139
163.3400     133
163.3600     134
163.3800     142
163.4000     171
163.4200     205
163.4400     219
163.4600     222
163.4800     207
163.5000     183
163.5200     151
163.5400     117
163.5600      98
163.5800      90
163.6000     110
163.6200     143
163.6400     178
163.6600     204
163.6800     181
163.7000     147
163.7200     153
163.7400     167
163.7600     136
163.7800      98
163.8000     112
163.8200     143
163.8400     161
163.8600     168
163.8800     155
163.9000     133
163.9200     113
163.9400     101
163.9600     132
163.9800     171
164.0000     167
164.0200     146
164.0400     130
164.0600     123
164.0800     153
164.1000     185
164.1200     160
164.1400     125
164.1600     153
164.1800     197
164.2000     186
164.2200     165
164.2400     197
164.2600     245
164.2800     263
164.3000     264
164.3200     237
164.3400     203
164.3600     189
164.3800     180
164.4000     156
164.4200     130
164.4400     122
164.4600     126
164.4800     148
164.5000     178
164.5200     205
164.5400     227
164.5600     229
164.5800     215
164.6000     163
164.6200     101
164.6400      72
164.6600      59
164.6800      59
164.7000      67
164.7200      82
164.7400     103
164.7600     137
164.7800     169
164.8000     158
164.8200     132
164.8400     121
164.8600     117
164.8800     126
164.9000     137
164.9200     133
164.9400     128
164.9600     148
164.9800     167
165.0000     131
165.0200      90
165.0400     134
165.0600     199
165.0800     196
165.1000     166
165.1200     134
165.1400     108
165.1600     114
165.1800     133
165.2000     155
165.2200     174
165.2400     170
165.2600     154
165.2800     130
165.3000     107
165.3200     109
165.3400     119
165.3600     119
165.3800     117
165.4000     128
165.4200     142
165.4400     148
165.4600     152
165.4800     164
165.5000     177
165.5200     175
165.5400     164
165.5600     138
165.5800     109
165.6000      93
165.6200      86
165.6400      93
165.6600     103
165.6800     106
165.7000     107
165.7200     113
165.7400     117
165.7600      98
165.7800      79
165.8000     106
165.8200     148
165.8400     170
165.8600     181
165.8800     177
165.9000     169
165.9200     171
165.9400     169
165.9600     127
165.9800      83
166.0000     104
166.0200     140
166.0400     116
166.0600      73
166.0800      52
166.1000      48
166.1200      84
166.1400     125
166.1600     111
166.1800      79
166.2000      67
166.2200      69
166.2400     106
166.2600     150
166.2800     164
166.3000     165
166.3200     161
166.3400     151
166.3600     119
166.3800      86
166.4000      85
166.4200      95
166.4400      98
166.4600      97
166.4800      88
166.5000      80
166.5200      95
166.5400     114
166.5600     110
166.5800     100
166.6000     112
166.6200     129
166.6400     132
166.6600     132
166.6800     139
166.7000     144
166.7200     126
166.7400     101
166.7600      94
166.7800      99
166.8000     127
166.8200     156
166.8400     140
166.8600     116
166.8800     142
166.9000     178
166.9200     161
166.9400     126
166.9600     106
166.9800      93