File: XRD_Tool/log/LDA_sample_name_01_Psi-0_20180623-132304.txt
143.0000   21545
143.0200   21683
143.0400   21564
143.0600   21256
143.0800   20516
143.1000   19815
143.1200   20169
143.1400   20821
143.1600   20850
143.1800   20698
143.2000   20886
143.2200   21168
143.2400   21243
143.2600   21241
143.2800   21268
143.3000   21246
143.3200   20927
143.3400   20562
143.3600   20562
143.3800   20642
143.4000   20394
143.4200   20072
143.4400   20040
143.4600   20079
143.4800   19893
143.5000   19556
143.5200   18912
143.5400   18288
143.5600   18371
143.5800   18681
143.6000   18711
143.6200   18619
143.6400   18477
143.6600   18264
143.6800   17801
143.7000   17274
143.7200   16934
143.7400   16603
143.7600   15947
143.7800   15312
143.8000   15435
143.8200   15789
143.8400   15785
143.8600   15613
143.8800   15324
143.9000   15003
143.9200   14754
143.9400   14571
143.9600   14575
143.9800   14606
144.0000   14407
144.0200   14043
144.0400   13319
144.0600   12671
144.0800   13123
144.1000   13762
144.1200   13139
144.1400   12189
144.1600   12129
144.1800   12336
144.2000   12097
144.2200   11753
144.2400   11784
144.2600   11891
144.2800   11633
144.3000   11290
144.3200   11252
144.3400   11339
144.3600   11439
144.3800   11466
144.4000   11100
144.4200   10677
144.4400   10757
144.4600   10927
144.4800   10534
144.5000   10008
144.5200    9942
144.5400   10012
144.5600    9842
144.5800    9616
144.6000    9595
144.6200    9596
144.6400    9304
144.6600    8892
144.6800    8470
144.7000    8125
144.7200    8185
144.7400    8319
144.7600    8014
144.7800    7599
144.8000    7509
144.8200    7537
144.8400    7502
144.8600    7400
144.8800    7088
144.9000    6771
144.9200    6847
144.9400    7016
144.9600    6860
144.9800    6601
145.0000    6475
145.0200    6408
145.0400    6363
145.0600    6268
145.0800    5881
145.1000    5440
145.1200    5311
145.1400    5279
145.1600    5107
145.1800    4916
145.2000    4910
145.2200    4931
145.2400    4715
145.2600    4439
145.2800    4333
145.3000    4271
145.3200    4091
145.3400    3890
145.3600    3824
145.3800    3781
145.4000    3583
145.4200    3352
145.4400    3266
145.4600    3243
145.4800    3243
145.5000    3231
145.5200    3109
145.5400    2962
145.5600    2907
145.5800    2885
145.6000    2843
145.6200    2781
145.6400    2664
145.6600    2542
145.6800    2508
145.7000    2497
145.7200    2419
145.7400    2314
145.7600    2204
145.7800    2097
145.8000    2012
145.8200    1954
145.8400    1989
145.8600    2044
145.8800    2013
145.9000    1964
145.9200    2003
145.9400    2043
145.9600    1910
145.9800    1731
146.0000    1668
146.0200    1647
146.0400    1601
146.0600    1542
146.0800    1465
146.1000    1388
146.1200    1344
146.1400    1332
146.1600    1407
146.1800    1502
146.2000    1525
146.2200    1503
146.2400    1398
146.2600    1286
146.2800    1304
146.3000    1351
146.3200    1286
146.3400    1198
146.3600    1218
146.3800    1267
146.4000    1238
146.4200    1180
146.4400    1135
146.4600    1098
146.4800    1076
146.5000    1066
146.5200    1085
146.5400    1101
146.5600    1047
146.5800     973
146.6000     940
146.6200     919
146.6400     868
146.6600     818
146.6800     826
146.7000     854
146.7200     859
146.7400     859
146.7600     882
146.7800     907
146.8000     892
146.8200     868
146.8400     871
146.8600     874
146.8800     827
146.9000     773
146.9200     789
146.9400     832
146.9600     873
146.9800     902
147.0000     875
147.0200     840
147.0400     880
147.0600     927
147.0800     859
147.1000     760
147.1200     739
147.1400     752
147.1600     782
147.1800     810
147.2000     796
147.2200     765
147.2400     729
147.2600     705
147.2800     753
147.3000     819
147.3200     838
147.3400     833
147.3600     798
147.3800     759
147.4000     752
147.4200     758
147.4400     765
147.4600     773
147.4800     780
147.5000     780
147.5200     755
147.5400     723
147.5600     711
147.5800     703
147.6000     677
147.6200     654
147.6400     691
147.6600     736
147.6800     706
147.7000     658
147.7200     673
147.7400     702
147.7600     673
147.7800     629
147.8000     627
147.8200     643
147.8400     674
147.8600     696
147.8800     648
147.9000     589
147.9200     613
147.9400     654
147.9600     612
147.9800     549
148.0000     554
148.0200     598
148.0400     702
148.0600     797
148.0800     727
148.1000     611
148.1200     592
148.1400     604
148.1600     579
148.1800     552
148.2000     589
148.2200     637
148.2400     616
148.2600     573
148.2800     550
148.3000     542
148.3200     561
148.3400     583
148.3600     565
148.3800     543
148.4000     581
148.4200     629
148.4400     612
148.4600     566
148.4800     508
148.5000     457
148.5200     461
148.5400     489
148.5600     525
148.5800     562
148.6000     579
148.6200     585
148.6400     568
148.6600     540
148.6800     507
148.7000     477
148.7200     479
148.7400     493
148.7600     507
148.7800     521
148.8000     538
148.8200     559
148.8400     597
148.8600     622
148.8800     550
148.9000     452
148.9200     416
148.9400     416
148.9600     479
148.9800     547
149.0000     515
149.0200     453
149.0400     441
149.0600     455
149.0800     498
149.1000     541
149.1200     529
149.1400     500
149.1600     501
149.1800     509
149.2000     497
149.2200     482
149.2400     492
149.2600     516
149.2800     558
149.3000     601
149.3200     607
149.3400     595
149.3600     562
149.3800     526
149.4000     520
149.4200     517
149.4400     469
149.4600     415
149.4800     421
149.5000     454
149.5200     505
149.5400     553
149.5600     548
149.5800     522
149.6000     497
149.6200     471
149.6400     432
149.6600     398
149.6800     417
149.7000     453
149.7200     468
149.7400     475
149.7600     490
149.7800     498
149.8000     454
149.8200     406
149.8400     433
149.8600     478
149.8800     458
149.9000     424
149.9200     452
149.9400     499
149.9600     524
149.9800     537
150.0000     535
150.0200     519
150.0400     458
150.0600     393
150.0800     393
150.1000     420
150.1200     449
150.1400     475
150.1600     484
150.1800     481
150.2000     451
150.2200     415
150.2400     396
150.2600     395
150.2800     449
150.3000     507
150.3200     473
150.3400     412
150.3600     394
150.3800     402
150.4000     447
150.4200     496
150.4400     488
150.4600     461
150.4800     446
150.5000     435
150.5200     420
150.5400     408
150.5600     411
150.5800     419
150.6000     417
150.6200     416
150.6400     442
150.6600     473
150.6800     479
150.7000     474
150.7200     466
150.7400     451
150.7600     416
150.7800     384
150.8000     414
150.8200     460
150.8400     466
150.8600     456
150.8800     451
150.9000     453
150.9200     485
150.9400     520
150.9600     512
150.9800     486
151.0000     463
151.0200     448
151.0400     468
151.0600     493
151.0800     470
151.1000     430
151.1200     403
151.1400     384
151.1600     378
151.1800     380
151.2000     391
151.2200     404
151.2400     413
151.2600     424
151.2800     449
151.3000     469
151.3200     439
151.3400     399
151.3600     409
151.3800     443
151.4000     497
151.4200     540
151.4400     489
151.4600     414
151.4800     404
151.5000     416
151.5200     405
151.5400     382
151.5600     346
151.5800     308
151.6000     290
151.6200     289
151.6400     336
151.6600     404
151.6800     484
151.7000     552
151.7200     543
151.7400     506
151.7600     484
151.7800     467
151.8000     440
151.8200     416
151.8400     420
151.8600     433
151.8800     431
151.9000     420
151.9200     394
151.9400     363
151.9600     334
151.9800     306
152.0000     281
152.0200     277
152.0400     370
152.0600     477
152.0800     462
152.1000     401
152.1200     352
152.1400     319
152.1600     344
152.1800     384
152.2000     383
152.2200     364
152.2400     340
152.2600     319
152.2800     328
152.3000     344
152.3200     343
152.3400     340
152.3600     362
152.3800     395
152.4000     430
152.4200     461
152.4400     469
152.4600     457
152.4800     396
152.5000     329
152.5200     326
152.5400     352
152.5600     401
152.5800     444
152.6000     414
152.6200     362
152.6400     350
152.6600     355
152.6800     367
152.7000     383
152.7200     414
152.7400     440
152.7600     419
152.7800     381
152.8000     353
152.8200     341
152.8400     384
152.8600     440
152.8800     448
152.9000     432
152.9200     398
152.9400     361
152.9600     352
152.9800     353
153.0000     349
153.0200     350
153.0400     386
153.0600     423
153.0800     397
153.1000     344
153.1200     288
153.1400     235
153.1600     207
153.1800     205
153.2000     283
153.2200     377
153.2400     391
153.2600     373
153.2800     356
153.3000     342
153.3200     337
153.3400     337
153.3600     350
153.3800     362
153.4000     342
153.4200     326
153.4400     387
153.4600     458
153.4800     422
153.5000     352
153.5200     322
153.5400     317
153.5600     355
153.5800     399
153.6000     378
153.6200     342
153.6400     354
153.6600     382
153.6800     387
153.7000     383
153.7200     381
153.7400     380
153.7600     384
153.7800     387
153.8000     380
153.8200     366
153.8400     340
153.8600     313
153.8800     303
153.9000     300
153.9200     302
153.9400     301
153.9600     275
153.9800     249
154.0000     275
154.0200     316
154.0400     335
154.0600     339
154.0800     310
154.1000     271
154.1200     252
154.1400     244
154.1600     259
154.1800     282
154.2000     297
154.2200     309
154.2400     319
154.2600     325
154.2800     309
154.3000     291
154.3200     303
154.3400     324
154.3600     327
154.3800     322
154.4000     315
154.4200     309
154.4400     308
154.4600     307
154.4800     289
154.5000     269
154.5200     268
154.5400     274
154.5600     285
154.5800     298
154.6000     316
154.6200     334
154.6400     340
154.6600     338
154.6800     318
154.7000     294
154.7200     290
154.7400     303
154.7600     364
154.7800     423
154.8000     376
154.8200     299
154.8400     288
154.8600     307
154.8800     338
154.9000     365
154.9200     350
154.9400     325
154.9600     332
154.9800     343
155.0000     307
155.0200     271
155.0400     322
155.0600     395
155.0800     406
155.1000     388
155.1200     348
155.1400     304
155.1600     279
155.1800     263
155.2000     258
155.2200     258
155.2400     258
155.2600     259
155.2800     265
155.3000     274
155.3200     287
155.3400     296
155.3600     280
155.3800     257
155.4000     249
155.4200     242
155.4400     210
155.4600     179
155.4800     208
155.5000     259
155.5200     303
155.5400     341
155.5600     359
155.5800     361
155.6000     323
155.6200     280
155.6400     289
155.6600     311
155.6800     293
155.7000     267
155.7200     282
155.7400     305
155.7600     280
155.7800     246
155.8000     260
155.8200     287
155.8400     279
155.8600     252
155.8800     198
155.9000     151
155.9200     186
155.9400     239
155.9600     219
155.9800     182
156.0000     210
156.0200     260
156.0400     295
156.0600     312
156.0800     274
156.1000     224
156.1200     222
156.1400     242
156.1600     274
156.1800     301
156.2000     286
156.2200     254
156.2400     221
156.2600     196
156.2800     217
156.3000     246
156.3200     217
156.3400     172
156.3600     165
156.3800     171
156.4000     167
156.4200     159
156.4400     150
156.4600     141
156.4800     138
156.5000     146
156.5200     189
156.5400     240
156.5600     254
156.5800     259
156.6000     288
156.6200     320
156.6400     325
156.6600     316
156.6800     292
156.7000     264
156.7200     246
156.7400     231
156.7600     209
156.7800     197
156.8000     245
156.8200     310
156.8400     339
156.8600     343
156.8800     300
156.9000     240
156.9200     192
156.9400     159
156.9600     184
156.9800     228
157.0000     252
157.0200     265
157.0400     262
157.0600     248
157.0800     219
157.1000     190
157.1200     194
157.1400     212
157.1600     232
157.1800     250
157.2000     256
157.2200     256
157.2400     243
157.2600     229
157.2800     236
157.3000     247
157.3200     230
157.3400     207
157.3600     207
157.3800     208
157.4000     161
157.4200     115
157.4400     174
157.4600     252
157.4800     223
157.5000     169
157.5200     205
157.5400     268
157.5600     283
157.5800     276
157.6000     257
157.6200     233
157.6400     208
157.6600     194
157.6800     245
157.7000     305
157.7200     287
157.7400     238
157.7600     194
157.7800     158
157.8000     152
157.8200     158
157.8400     165
157.8600     176
157.8800     201
157.9000     228
157.9200     241
157.9400     248
157.9600     245
157.9800     239
158.0000     233
158.0200     228
158.0400     225
158.0600     223
158.0800     221
158.1000     226
158.1200     266
158.1400     306
158.1600     276
158.1800     225
158.2000     209
158.2200     210
158.2400     227
158.2600     246
158.2800     240
158.3000     229
158.3200     243
158.3400     258
158.3600     228
158.3800     188
158.4000     187
158.4200     200
158.4400     211
158.4600     222
158.4800     238
158.5000     250
158.5200     230
158.5400     197
158.5600     159
158.5800     126
158.6000     123
158.6200     138
158.6400     180
158.6600     225
158.6800     237
158.7000     233
158.7200     219
158.7400     200
158.7600     177
158.7800     164
158.8000     205
158.8200     256
158.8400     252
158.8600     225
158.8800     198
158.9000     180
158.9200     210
158.9400     243
158.9600     191
158.9800     116
159.0000      98
159.0200     106
159.0400     136
159.0600     170
159.0800     187
159.1000     192
159.1200     174
159.1400     156
159.1600     191
159.1800     240
159.2000     249
159.2200     244
159.2400     244
159.2600     246
159.2800     246
159.3000     243
159.3200     225
159.3400     209
159.3600     228
159.3800     252
159.4000     223
159.4200     184
159.4400     200
159.4600     227
159.4800     202
159.5000     168
159.5200     192
159.5400     233
159.5600     239
159.5800     229
159.6000     206
159.6200     186
159.6400     204
159.6600     233
159.6800     234
159.7000     223
159.7200     210
159.7400     190
159.7600     140
159.7800      90
159.8000     100
159.8200     128
159.8400     126
159.8600     121
159.8800     158
159.9000     206
159.9200     227
159.9400     234
159.9600     224
159.9800     212
160.0000     217
160.0200     229
160.0400     239
160.0600     243
160.0800     219
160.1000     188
160.1200     180
160.1400     183
160.1600     191
160.1800     207
160.2000     251
160.2200     289
160.2400     237
160.2600     168
160.2800     191
160.3000     238
160.3200     223
160.3400     193
160.3600     210
160.3800     241
160.4000     249
160.4200     249
160.4400     262
160.4600     270
160.4800     230
160.5000     182
160.5200     192
160.5400     222
160.5600     230
160.5800     228
160.6000     213
160.6200     199
160.6400     213
160.6600     235
160.6800     235
160.7000     227
160.7200     219
160.7400     210
160.7600     191
160.7800     167
160.8000     135
160.8200     108
160.8400     129
160.8600     170
160.8800     213
160.9000     249
160.9200     248
160.9400     236
160.9600     244
160.9800     260
161.0000     275
161.0200     284
161.0400     269
161.0600     248
161.0800     241
161.1000     233
161.1200     200
161.1400     158
161.1600     124
161.1800     105
161.2000     141
161.2200     187
161.2400     173
161.2600     144
161.2800     158
161.3000     188
161.3200     205
161.3400     215
161.3600     218
161.3800     217
161.4000     206
161.4200     190
161.4400     164
161.4600     137
161.4800     123
161.5000     123
161.5200     160
161.5400     202
161.5600     196
161.5800     173
161.6000     168
161.6200     172
161.6400     188
161.6600     204
161.6800     200
161.7000     186
161.7200     164
161.7400     138
161.7600     117
161.7800     102
161.8000     110
161.8200     135
161.8400     197
161.8600     256
161.8800     232
161.9000     181
161.9200     165
161.9400     162
161.9600     155
161.9800     147
162.0000     136
162.0200     131
162.0400     164
162.0600     205
162.0800     206
162.1000     199
162.1200     224
162.1400     250
162.1600     217
162.1800     170
162.2000     168
162.2200     185
162.2400     204
162.2600     214
162.2800     176
162.3000     125
162.3200     112
162.3400     115
162.3600     123
162.3800     137
162.4000     173
162.4200     209
162.4400     203
162.4600     189
162.4800     212
162.5000     237
162.5200     202
162.5400     151
162.5600     145
162.5800     155
162.6000     157
162.6200     155
162.6400     153
162.6600     158
162.6800     198
162.7000     244
162.7200     255
162.7400     246
162.7600     215
162.7800     180
162.8000     165
162.8200     160
162.8400     160
162.8600     166
162.8800     194
162.9000     222
162.9200     208
162.9400     181
162.9600     167
162.9800     167
163.0000     202
163.0200     236
163.0400     190
163.0600     127
163.0800     137
163.1000     173
163.1200     189
163.1400     195
163.1600     191
163.1800     187
163.2000     202
163.2200     217
163.2400     202
163.2600     175
163.2800     156
163.3000     149
163.3200     186
163.3400     229
163.3600     222
163.3800     200
163.4000     208
163.4200     222
163.4400     204
163.4600     172
163.4800     128
163.5000      92
163.5200     111
163.5400     149
163.5600     169
163.5800     176
163.6000     161
163.6200     143
163.6400     155
163.6600     179
163.6800     200
163.7000     220
163.7200     243
163.7400     256
163.7600     213
163.7800     155
163.8000     137
163.8200     135
163.8400     134
163.8600     134
163.8800     133
163.9000     136
163.9200     169
163.9400     205
163.9600     201
163.9800     185
164.0000     189
164.0200     193
164.0400     160
164.0600     118
164.0800     105
164.1000     112
164.1200     169
164.1400     231
164.1600     225
164.1800     190
164.2000     155
164.2200     128
164.2400     144
164.2600     182
164.2800     237
164.3000     284
164.3200     261
164.3400     217
164.3600     215
164.3800     222
164.4000     199
164.4200     165
164.4400     143
164.4600     126
164.4800     117
164.5000     114
164.5200     128
164.5400     151
164.5600     191
164.5800     223
164.6000     188
164.6200     138
164.6400     146
164.6600     173
164.6800     174
164.7000     165
164.7200     162
164.7400     160
164.7600     145
164.7800     131
164.8000     150
164.8200     172
164.8400     144
164.8600     108
164.8800     129
164.9000     167
164.9200     177
164.9400     174
164.9600     169
164.9800     165
165.0000     169
165.0200     174
165.0400     163
165.0600     146
165.0800     134
165.1000     122
165.1200     100
165.1400      79
165.1600      83
165.1800     100
165.2000     132
165.2200     164
165.2400     171
165.2600     166
165.2800     158
165.3000     147
165.3200     131
165.3400     118
165.3600     130
165.3800     153
165.4000     186
165.4200     212
165.4400     191
165.4600     153
165.4800     125
165.5000     109
165.5200     133
165.5400     167
165.5600     168
165.5800     156
165.6000     144
165.6200     133
165.6400     127
165.6600     129
165.6800     163
165.7000     202
165.7200     211
165.7400     204
165.7600     182
165.7800     156
165.8000     143
165.8200     139
165.8400     152
165.8600     167
165.8800     155
165.9000     135
165.9200     127
165.9400     122
165.9600     114
165.9800     104
166.0000      99
166.0200      96
166.0400      98
166.0600     102
166.0800     108
166.1000     114
166.1200     120
166.1400     125
166.1600     130
166.1800     133
166.2000     134
166.2200     135
166.2400     138
166.2600     133
166.2800      85
166.3000      34
166.3200      63
166.3400     114
166.3600     118
166.3800     110
166.4000     132
166.4200     160
166.4400     155
166.4600     133
166.4800      94
166.5000      57
166.5200      67
166.5400      93
166.5600     109
166.5800     117
166.6000     107
166.6200      97
166.6400     128
166.6600     166
166.6800     153
166.7000     128
166.7200     153
166.7400     187
166.7600     171
166.7800     137
166.8000     115
166.8200     105
166.8400     136
166.8600     176
166.8800     173
166.9000     155
166.9200     145
166.9400     138
166.9600     123
166.9800     104