File: XRD_Tool/log/LDA_sample_name_56789_Psi-45_20180603-123104.txt
143.0000     271
143.0400     251
143.0800     278
143.1200     255
143.1600     292
143.2000     267
143.2400     235
143.2800     252
143.3200     247
143.3600     256
143.4000     244
143.4400     269
143.4800     262
143.5200     267
143.5600     246
143.6000     279
143.6400     255
143.6800     256
143.7200     281
143.7600     227
143.8000     262
143.8400     266
143.8800     264
143.9200     257
143.9600     249
144.0000     234
144.0400     256
144.0800     273
144.1200     257
144.1600     236
144.2000     254
144.2400     254
144.2800     266
144.3200     257
144.3600     276
144.4000     269
144.4400     240
144.4800     275
144.5200     287
144.5600     259
144.6000     248
144.6400     284
144.6800     263
144.7200     248
144.7600     268
144.8000     263
144.8400     253
144.8800     279
144.9200     225
144.9600     281
145.0000     245
145.0400     233
145.0800     251
145.1200     264
145.1600     272
145.2000     228
145.2400     265
145.2800     264
145.3200     261
145.3600     276
145.4000     246
145.4400     280
145.4800     269
145.5200     265
145.5600     286
145.6000     278
145.6400     273
145.6800     276
145.7200     260
145.7600     245
145.8000     245
145.8400     268
145.8800     273
145.9200     265
145.9600     258
146.0000     308
146.0400     252
146.0800     274
146.1200     243
146.1600     270
146.2000     277
146.2400     229
146.2800     289
146.3200     254
146.3600     243
146.4000     261
146.4400     237
146.4800     273
146.5200     271
146.5600     239
146.6000     269
146.6400     290
146.6800     230
146.7200     255
146.7600     239
146.8000     253
146.8400     266
146.8800     276
146.9200     259
146.9600     256
147.0000     273
147.0400     273
147.0800     273
147.1200     273
147.1600     273
147.2000     280
147.2400     274
147.2800     262
147.3200     246
147.3600     281
147.4000     293
147.4400     265
147.4800     258
147.5200     261
147.5600     281
147.6000     261
147.6400     258
147.6800     301
147.7200     293
147.7600     268
147.8000     293
147.8400     265
147.8800     299
147.9200     295
147.9600     301
148.0000     302
148.0400     296
148.0800     293
148.1200     297
148.1600     275
148.2000     267
148.2400     290
148.2800     267
148.3200     278
148.3600     290
148.4000     274
148.4400     280
148.4800     290
148.5200     303
148.5600     284
148.6000     265
148.6400     279
148.6800     270
148.7200     262
148.7600     273
148.8000     265
148.8400     303
148.8800     293
148.9200     280
148.9600     267
149.0000     292
149.0400     303
149.0800     285
149.1200     289
149.1600     261
149.2000     303
149.2400     277
149.2800     308
149.3200     310
149.3600     293
149.4000     297
149.4400     304
149.4800     286
149.5200     319
149.5600     293
149.6000     299
149.6400     272
149.6800     274
149.7200     276
149.7600     276
149.8000     337
149.8400     307
149.8800     320
149.9200     322
149.9600     281
150.0000     269
150.0400     288
150.0800     298
150.1200     264
150.1600     302
150.2000     292
150.2400     274
150.2800     276
150.3200     298
150.3600     292
150.4000     298
150.4400     328
150.4800     321
150.5200     333
150.5600     331
150.6000     328
150.6400     293
150.6800     297
150.7200     295
150.7600     301
150.8000     318
150.8400     354
150.8800     289
150.9200     295
150.9600     297
151.0000     316
151.0400     296
151.0800     314
151.1200     316
151.1600     283
151.2000     322
151.2400     313
151.2800     273
151.3200     341
151.3600     335
151.4000     317
151.4400     355
151.4800     343
151.5200     331
151.5600     303
151.6000     341
151.6400     347
151.6800     327
151.7200     343
151.7600     340
151.8000     335
151.8400     338
151.8800     335
151.9200     342
151.9600     340
152.0000     372
152.0400     330
152.0800     358
152.1200     379
152.1600     380
152.2000     348
152.2400     372
152.2800     386
152.3200     345
152.3600     417
152.4000     357
152.4400     423
152.4800     394
152.5200     375
152.5600     389
152.6000     431
152.6400     436
152.6800     431
152.7200     419
152.7600     445
152.8000     498
152.8400     453
152.8800     472
152.9200     466
152.9600     477
153.0000     487
153.0400     517
153.0800     452
153.1200     495
153.1600     480
153.2000     515
153.2400     497
153.2800     540
153.3200     479
153.3600     495
153.4000     529
153.4400     555
153.4800     540
153.5200     493
153.5600     540
153.6000     551
153.6400     552
153.6800     612
153.7200     612
153.7600     641
153.8000     603
153.8400     614
153.8800     619
153.9200     607
153.9600     614
154.0000     664
154.0400     579
154.0800     617
154.1200     634
154.1600     678
154.2000     624
154.2400     678
154.2800     700
154.3200     659
154.3600     653
154.4000     742
154.4400     618
154.4800     623
154.5200     665
154.5600     722
154.6000     713
154.6400     711
154.6800     768
154.7200     720
154.7600     686
154.8000     690
154.8400     724
154.8800     740
154.9200     662
154.9600     701
155.0000     734
155.0400     656
155.0800     642
155.1200     612
155.1600     654
155.2000     656
155.2400     716
155.2800     669
155.3200     726
155.3600     703
155.4000     681
155.4400     653
155.4800     684
155.5200     687
155.5600     647
155.6000     672
155.6400     696
155.6800     627
155.7200     674
155.7600     635
155.8000     609
155.8400     662
155.8800     577
155.9200     655
155.9600     597
156.0000     578
156.0400     597
156.0800     623
156.1200     588
156.1600     581
156.2000     535
156.2400     528
156.2800     583
156.3200     550
156.3600     563
156.4000     516
156.4400     515
156.4800     556
156.5200     446
156.5600     500
156.6000     465
156.6400     531
156.6800     509
156.7200     487
156.7600     509
156.8000     485
156.8400     466
156.8800     459
156.9200     470
156.9600     493
157.0000     476
157.0400     456
157.0800     405
157.1200     397
157.1600     436
157.2000     400
157.2400     418
157.2800     427
157.3200     435
157.3600     425
157.4000     403
157.4400     423
157.4800     449
157.5200     406
157.5600     369
157.6000     376
157.6400     379
157.6800     433
157.7200     375
157.7600     431
157.8000     387
157.8400     396
157.8800     376
157.9200     396
157.9600     386
158.0000     388
158.0400     388
158.0800     338
158.1200     393
158.1600     347
158.2000     350
158.2400     354
158.2800     382
158.3200     345
158.3600     367
158.4000     389
158.4400     357
158.4800     349
158.5200     385
158.5600     338
158.6000     357
158.6400     357
158.6800     369
158.7200     357
158.7600     342
158.8000     368
158.8400     356
158.8800     328
158.9200     322
158.9600     353
159.0000     293
159.0400     332
159.0800     292
159.1200     319
159.1600     341
159.2000     352
159.2400     308
159.2800     369
159.3200     306
159.3600     300
159.4000     357
159.4400     334
159.4800     318
159.5200     267
159.5600     344
159.6000     322
159.6400     329
159.6800     303
159.7200     312
159.7600     293
159.8000     298
159.8400     346
159.8800     309
159.9200     313
159.9600     343
160.0000     304
160.0400     305
160.0800     309
160.1200     285
160.1600     292
160.2000     305
160.2400     281
160.2800     277
160.3200     336
160.3600     285
160.4000     318
160.4400     312
160.4800     350
160.5200     332
160.5600     265
160.6000     304
160.6400     277
160.6800     317
160.7200     318
160.7600     287
160.8000     294
160.8400     256
160.8800     300
160.9200     315
160.9600     284
161.0000     279
161.0400     285
161.0800     291
161.1200     304
161.1600     279
161.2000     303
161.2400     270
161.2800     291
161.3200     284
161.3600     278
161.4000     303
161.4400     261
161.4800     278
161.5200     282
161.5600     299
161.6000     307
161.6400     287
161.6800     261
161.7200     273
161.7600     288
161.8000     306
161.8400     273
161.8800     283
161.9200     262
161.9600     270
162.0000     252
162.0400     263
162.0800     290
162.1200     302
162.1600     256
162.2000     258
162.2400     259
162.2800     280
162.3200     281
162.3600     286
162.4000     268
162.4400     304
162.4800     255
162.5200     262
162.5600     272
162.6000     279
162.6400     260
162.6800     290
162.7200     312
162.7600     288
162.8000     284
162.8400     307
162.8800     292
162.9200     259
162.9600     268
163.0000     288
163.0400     288
163.0800     253
163.1200     287
163.1600     290
163.2000     291
163.2400     307
163.2800     277
163.3200     273
163.3600     252
163.4000     286
163.4400     292
163.4800     300
163.5200     276
163.5600     278
163.6000     274
163.6400     282
163.6800     291
163.7200     269
163.7600     274
163.8000     290
163.8400     268
163.8800     257
163.9200     284
163.9600     268
164.0000     272
164.0400     270
164.0800     272
164.1200     266
164.1600     273
164.2000     248
164.2400     253
164.2800     267
164.3200     287
164.3600     252
164.4000     296
164.4400     284
164.4800     293
164.5200     261
164.5600     285
164.6000     264
164.6400     239
164.6800     262
164.7200     261
164.7600     262
164.8000     286
164.8400     269
164.8800     259
164.9200     258
164.9600     289
165.0000     272
165.0400     254
165.0800     282
165.1200     292
165.1600     296
165.2000     233
165.2400     256
165.2800     279
165.3200     257
165.3600     283
165.4000     264
165.4400     258
165.4800     290
165.5200     268
165.5600     287
165.6000     257
165.6400     266
165.6800     287
165.7200     280
165.7600     281
165.8000     288
165.8400     235
165.8800     270
165.9200     254
165.9600     258
166.0000     253
166.0400     244
166.0800     263
166.1200     235
166.1600     281
166.2000     280
166.2400     275
166.2800     269
166.3200     268
166.3600     246
166.4000     246
166.4400     269
166.4800     250
166.5200     259
166.5600     257
166.6000     232
166.6400     264
166.6800     299
166.7200     226
166.7600     253
166.8000     273
166.8400     272
166.8800     270
166.9200     259
166.9600     269