File: XRD_Tool/log/LDA_sample_name_56789_Psi-0_20180623-130825.txt
138.0000     573
138.0200     556
138.0400     557
138.0600     571
138.0800     615
138.1000     664
138.1200     675
138.1400     669
138.1600     653
138.1800     636
138.2000     635
138.2200     644
138.2400     663
138.2600     681
138.2800     667
138.3000     645
138.3200     638
138.3400     644
138.3600     682
138.3800     724
138.4000     726
138.4200     714
138.4400     710
138.4600     712
138.4800     722
138.5000     731
138.5200     714
138.5400     691
138.5600     694
138.5800     705
138.6000     696
138.6200     688
138.6400     718
138.6600     756
138.6800     749
138.7000     728
138.7200     720
138.7400     717
138.7600     704
138.7800     695
138.8000     719
138.8200     756
138.8400     785
138.8600     813
138.8800     851
138.9000     880
138.9200     842
138.9400     792
138.9600     812
138.9800     851
139.0000     845
139.0200     830
139.0400     857
139.0600     897
139.0800     922
139.1000     935
139.1200     926
139.1400     909
139.1600     894
139.1800     873
139.2000     817
139.2200     773
139.2400     861
139.2600     977
139.2800     978
139.3000     943
139.3200     961
139.3400     995
139.3600    1001
139.3800     991
139.4000     961
139.4200     929
139.4400     927
139.4600     945
139.4800    1005
139.5000    1060
139.5200    1015
139.5400     946
139.5600     964
139.5800    1006
139.6000     998
139.6200     966
139.6400     919
139.6600     875
139.6800     879
139.7000     915
139.7200    1008
139.7400    1100
139.7600    1072
139.7800    1001
139.8000     960
139.8200     935
139.8400     938
139.8600     950
139.8800     947
139.9000     948
139.9200     991
139.9400    1042
139.9600    1053
139.9800    1050
140.0000    1062
140.0200    1077
140.0400    1079
140.0600    1063
140.0800     987
140.1000     900
140.1200     881
140.1400     900
140.1600     971
140.1800    1043
140.2000    1018
140.2200     969
140.2400     997
140.2600    1034
140.2800     966
140.3000     871
140.3200     849
140.3400     853
140.3600     837
140.3800     825
140.4000     873
140.4200     935
140.4400     944
140.4600     938
140.4800     962
140.5000     992
140.5200     995
140.5400     994
140.5600    1028
140.5800    1065
140.6000    1044
140.6200    1003
140.6400     980
140.6600     956
140.6800     890
140.7000     827
140.7200     856
140.7400     906
140.7600     878
140.7800     833
140.8000     863
140.8200     903
140.8400     848
140.8600     780
140.8800     844
140.9000     938
140.9200     925
140.9400     878
140.9600     874
140.9800     879
141.0000     836
141.0200     784
141.0400     785
141.0600     807
141.0800     828
141.1000     841
141.1200     822
141.1400     814
141.1600     926
141.1800    1050
141.2000     996
141.2200     890
141.2400     882
141.2600     905
141.2800     885
141.3000     850
141.3200     832
141.3400     820
141.3600     808
141.3800     795
141.4000     780
141.4200     764
141.4400     750
141.4600     733
141.4800     703
141.5000     684
141.5200     755
141.5400     837
141.5600     802
141.5800     733
141.6000     726
141.6200     729
141.6400     659
141.6600     578
141.6800     597
141.7000     653
141.7200     699
141.7400     732
141.7600     718
141.7800     681
141.8000     616
141.8200     551
141.8400     541
141.8600     556
141.8800     589
141.9000     627
141.9200     653
141.9400     669
141.9600     655
141.9800     628
142.0000     591
142.0200     568
142.0400     630
142.0600     709
142.0800     701
142.1000     661
142.1200     626
142.1400     606
142.1600     646
142.1800     699
142.2000     695
142.2200     668
142.2400     636
142.2600     610
142.2800     621
142.3000     650
142.3200     697
142.3400     734
142.3600     681
142.3800     599
142.4000     549
142.4200     525
142.4400     569
142.4600     637
142.4800     685
142.5000     708
142.5200     644
142.5400     559
142.5600     536
142.5800     536
142.6000     526
142.6200     519
142.6400     549
142.6600     584
142.6800     577
142.7000     552
142.7200     524
142.7400     505
142.7600     541
142.7800     580
142.8000     526
142.8200     446
142.8400     429
142.8600     448
142.8800     520
142.9000     596
142.9200     581
142.9400     536
142.9600     526
142.9800     523
143.0000     488
143.0200     451
143.0400     467
143.0600     493
143.0800     454
143.1000     402
143.1200     410
143.1400     434
143.1600     415
143.1800     386
143.2000     397
143.2200     425
143.2400     461
143.2600     498
143.2800     517
143.3000     526
143.3200     521
143.3400     513
143.3600     514
143.3800     512
143.4000     485
143.4200     452
143.4400     442
143.4600     441
143.4800     435
143.5000     429
143.5200     430
143.5400     428
143.5600     401
143.5800     367
143.6000     355
143.6200     354
143.6400     369
143.6600     389
143.6800     396
143.7000     397
143.7200     391
143.7400     383
143.7600     375
143.7800     362
143.8000     322
143.8200     284
143.8400     301
143.8600     336
143.8800     348
143.9000     350
143.9200     352
143.9400     360
143.9600     396
143.9800     432
144.0000     406
144.0200     359
144.0400     324
144.0600     298
144.0800     294
144.1000     299
144.1200     310
144.1400     319
144.1600     302
144.1800     286
144.2000     333
144.2200     387
144.2400     353
144.2600     296
144.2800     304
144.3000     331
144.3200     323
144.3400     305
144.3600     309
144.3800     321
144.4000     336
144.4200     349
144.4400     349
144.4600     342
144.4800     328
144.5000     313
144.5200     301
144.5400     293
144.5600     290
144.5800     289
144.6000     285
144.6200     276
144.6400     250
144.6600     229
144.6800     265
144.7000     314
144.7200     316
144.7400     305
144.7600     319
144.7800     334
144.8000     304
144.8200     265
144.8400     271
144.8600     295
144.8800     319
144.9000     334
144.9200     304
144.9400     264
144.9600     262
144.9800     279
145.0000     306
145.0200     334
145.0400     340
145.0600     341
145.0800     352
145.1000     361
145.1200     335
145.1400     297
145.1600     269
145.1800     253
145.2000     274
145.2200     303
145.2400     300
145.2600     286
145.2800     282
145.3000     277
145.3200     249
145.3400     218
145.3600     222
145.3800     247
145.4000     309
145.4200     366
145.4400     328
145.4600     259
145.4800     226
145.5000     210
145.5200     199
145.5400     195
145.5600     208
145.5800     230
145.6000     267
145.6200     300
145.6400     288
145.6600     262
145.6800     259
145.7000     264
145.7200     264
145.7400     262
145.7600     257
145.7800     249
145.8000     229
145.8200     206
145.8400     188
145.8600     176
145.8800     184
145.9000     199
145.9200     209
145.9400     217
145.9600     223
145.9800     221
146.0000     179
146.0200     137
146.0400     170
146.0600     224
146.0800     230
146.1000     222
146.1200     246
146.1400     276
146.1600     277
146.1800     268
146.2000     261
146.2200     249
146.2400     210
146.2600     169
146.2800     173
146.3000     196
146.3200     223
146.3400     249
146.3600     265
146.3800     269
146.4000     234
146.4200     196
146.4400     217
146.4600     254
146.4800     259
146.5000     251
146.5200     240
146.5400     232
146.5600     244
146.5800     258
146.6000     242
146.6200     218
146.6400     217
146.6600     225
146.6800     235
146.7000     243
146.7200     244
146.7400     241
146.7600     232
146.7800     224
146.8000     241
146.8200     253
146.8400     193
146.8600     121
146.8800     127
146.9000     163
146.9200     184
146.9400     200
146.9600     213
146.9800     223
147.0000     223
147.0200     214
147.0400     185
147.0600     156
147.0800     172
147.1000     199
147.1200     193
147.1400     178
147.1600     189
147.1800     205
147.2000     186
147.2200     157
147.2400     145
147.2600     146
147.2800     182
147.3000     226
147.3200     238
147.3400     234
147.3600     212
147.3800     189
147.4000     201
147.4200     222
147.4400     216
147.4600     204
147.4800     214
147.5000     230
147.5200     238
147.5400     243
147.5600     258
147.5800     270
147.6000     252
147.6200     221
147.6400     185
147.6600     159
147.6800     196
147.7000     245
147.7200     228
147.7400     192
147.7600     201
147.7800     222
147.8000     216
147.8200     206
147.8400     228
147.8600     252
147.8800     226
147.9000     191
147.9200     209
147.9400     249
147.9600     291
147.9800     321
148.0000     293
148.0200     240
148.0400     187
148.0600     144
148.0800     156
148.1000     185
148.1200     191
148.1400     189
148.1600     197
148.1800     200
148.2000     163
148.2200     128
148.2400     188
148.2600     267
148.2800     254
148.3000     213
148.3200     212
148.3400     229
148.3600     253
148.3800     270
148.4000     240
148.4200     198
148.4400     184
148.4600     180
148.4800     165
148.5000     154
148.5200     193
148.5400     237
148.5600     213
148.5800     171
148.6000     179
148.6200     204
148.6400     215
148.6600     213
148.6800     170
148.7000     126
148.7200     165
148.7400     223
148.7600     209
148.7800     175
148.8000     176
148.8200     191
148.8400     203
148.8600     212
148.8800     218
148.9000     221
148.9200     220
148.9400     213
148.9600     178
148.9800     147
149.0000     193
149.0200     251
149.0400     224
149.0600     161
149.0800      95
149.1000      45
149.1200      90
149.1400     165
149.1600     208
149.1800     227
149.2000     188
149.2200     133
149.2400     116
149.2600     120
149.2800     151
149.3000     186
149.3200     186
149.3400     177
149.3600     193
149.3800     215
149.4000     217
149.4200     214
149.4400     228
149.4600     239
149.4800     205
149.5000     161
149.5200     158
149.5400     170
149.5600     172
149.5800     173
149.6000     188
149.6200     203
149.6400     193
149.6600     176
149.6800     177
149.7000     185
149.7200     191
149.7400     194
149.7600     179
149.7800     163
149.8000     175
149.8200     195
149.8400     195
149.8600     187
149.8800     179
149.9000     167
149.9200     132
149.9400     101
149.9600     135
149.9800     193
150.0000     241
150.0200     271
150.0400     234
150.0600     179
150.0800     166
150.1000     167
150.1200     154
150.1400     140
150.1600     146
150.1800     154
150.2000     127
150.2200     102
150.2400     149
150.2600     214
150.2800     229
150.3000     218
150.3200     185
150.3400     145
150.3600     110
150.3800      91
150.4000     135
150.4200     192
150.4400     183
150.4600     152
150.4800     146
150.5000     156
150.5200     197
150.5400     239
150.5600     218
150.5800     174
150.6000     143
150.6200     123
150.6400     128
150.6600     145
150.6800     164
150.7000     178
150.7200     167
150.7400     154
150.7600     189
150.7800     226
150.8000     177
150.8200     107
150.8400     110
150.8600     141
150.8800     164
150.9000     177
150.9200     155
150.9400     129
150.9600     153
150.9800     185
151.0000     158
151.0200     118
151.0400     127
151.0600     153
151.0800     169
151.1000     179
151.1200     184
151.1400     185
151.1600     181
151.1800     180
151.2000     206
151.2200     229
151.2400     187
151.2600     126
151.2800     101
151.3000      94
151.3200      97
151.3400     109
151.3600     143
151.3800     180
151.4000     195
151.4200     201
151.4400     202
151.4600     197
151.4800     169
151.5000     142
151.5200     170
151.5400     205
151.5600     165
151.5800     111
151.6000     135
151.6200     181
151.6400     175
151.6600     147
151.6800     106
151.7000      68
151.7200      68
151.7400      86
151.7600     112
151.7800     141
151.8000     160
151.8200     173
151.8400     168
151.8600     158
151.8800     158
151.9000     160
151.9200     157
151.9400     153
151.9600     157
151.9800     164
152.0000     166
152.0200     164
152.0400     152
152.0600     134
152.0800     104
152.1000      80
152.1200     106
152.1400     149
152.1600     177
152.1800     192
152.2000     171
152.2200     144
152.2400     167
152.2600     198
152.2800     177
152.3000     143
152.3200     149
152.3400     173
152.3600     202
152.3800     219
152.4000     161
152.4200      89
152.4400      94
152.4600     120
152.4800      99
152.5000      68
152.5200      82
152.5400     112
152.5600     129
152.5800     141
152.6000     154
152.6200     165
152.6400     160
152.6600     154
152.6800     181
152.7000     214
152.7200     214
152.7400     202
152.7600     198
152.7800     193
152.8000     165
152.8200     128
152.8400      96
152.8600      80
152.8800     134
152.9000     201
152.9200     196
152.9400     165
152.9600     146
152.9800     136
153.0000     148
153.0200     162
153.0400     147
153.0600     126
153.0800     127
153.1000     138
153.1200     156
153.1400     172
153.1600     168
153.1800     155
153.2000     137
153.2200     126
153.2400     160
153.2600     200
153.2800     181
153.3000     146
153.3200     146
153.3400     156
153.3600     146
153.3800     137
153.4000     168
153.4200     202
153.4400     163
153.4600     109
153.4800     130
153.5000     173
153.5200     179
153.5400     171
153.5600     163
153.5800     155
153.6000     147
153.6200     144
153.6400     168
153.6600     194
153.6800     178
153.7000     147
153.7200     123
153.7400     110
153.7600     142
153.7800     179
153.8000     153
153.8200     113
153.8400     133
153.8600     165
153.8800     142
153.9000     106
153.9200     120
153.9400     145
153.9600     128
153.9800     100
154.0000     101
154.0200     113
154.0400     125
154.0600     139
154.0800     164
154.1000     187
154.1200     175
154.1400     151
154.1600     132
154.1800     120
154.2000     126
154.2200     134
154.2400     111
154.2600      85
154.2800     114
154.3000     155
154.3200     149
154.3400     128
154.3600     119
154.3800     116
154.4000     121
154.4200     129
154.4400     135
154.4600     143
154.4800     161
154.5000     178
154.5200     169
154.5400     155
154.5600     172
154.5800     191
154.6000     150
154.6200      97
154.6400     101
154.6600     123
154.6800     123
154.7000     111
154.7200      81
154.7400      51
154.7600      63
154.7800      84
154.8000      75
154.8200      60
154.8400      80
154.8600     111
154.8800     129
154.9000     142
154.9200     161
154.9400     176
154.9600     155
154.9800     126
155.0000     135
155.0200     158
155.0400     178
155.0600     191
155.0800     181
155.1000     161
155.1200     144
155.1400     134
155.1600     152
155.1800     178
155.2000     184
155.2200     183
155.2400     184
155.2600     181
155.2800     155
155.3000     129
155.3200     156
155.3400     193
155.3600     175
155.3800     137
155.4000     111
155.4200      97
155.4400     125
155.4600     158
155.4800     139
155.5000     106
155.5200     108
155.5400     125
155.5600     144
155.5800     158
155.6000     143
155.6200     122
155.6400     126
155.6600     139
155.6800     142
155.7000     145
155.7200     165
155.7400     180
155.7600     142
155.7800      87
155.8000      57
155.8200      46
155.8400      85
155.8600     133
155.8800     131
155.9000     112
155.9200     106
155.9400     109
155.9600     129
155.9800     153
156.0000     169
156.0200     176
156.0400     158
156.0600     133
156.0800     126
156.1000     122
156.1200      98
156.1400      75
156.1600      94
156.1800     120
156.2000      99
156.2200      68
156.2400      82
156.2600     114
156.2800     146
156.3000     171
156.3200     161
156.3400     137
156.3600     115
156.3800     103
156.4000     141
156.4200     183
156.4400     143
156.4600      82
156.4800      76
156.5000      96
156.5200     133
156.5400     161
156.5600     114
156.5800      52
156.6000      70
156.6200     113
156.6400     119
156.6600     111
156.6800     101
156.7000      88
156.7200      55
156.7400      26
156.7600      49
156.7800      88
156.8000     103
156.8200     112
156.8400     133
156.8600     153
156.8800     145
156.9000     124
156.9200      98
156.9400      79
156.9600     106
156.9800     147
157.0000     163
157.0200     167
157.0400     158
157.0600     146
157.0800     144
157.1000     142
157.1200     118
157.1400      90
157.1600      82
157.1800      85
157.2000     101
157.2200     125
157.2400     156
157.2600     174
157.2800     114
157.3000      39
157.3200      49
157.3400      87
157.3600     100
157.3800     102
157.4000     106
157.4200     105
157.4400      80
157.4600      53
157.4800      58
157.5000      75
157.5200      87
157.5400     101
157.5600     133
157.5800     164
157.6000     150
157.6200     123
157.6400     118
157.6600     123
157.6800     134
157.7000     151
157.7200     182
157.7400     206
157.7600     175
157.7800     129
157.8000     121
157.8200     128
157.8400     130
157.8600     132
157.8800     142
157.9000     157
157.9200     177
157.9400     197
157.9600     202
157.9800     203
158.0000     207
158.0200     212
158.0400     207
158.0600     195
158.0800     165
158.1000     135
158.1200     148
158.1400     172
158.1600     166
158.1800     149
158.2000     136
158.2200     123
158.2400     110
158.2600     101
158.2800     115
158.3000     134
158.3200     126
158.3400     112
158.3600     117
158.3800     130
158.4000     148
158.4200     161
158.4400     140
158.4600     111
158.4800     104
158.5000     108
158.5200     122
158.5400     134
158.5600     119
158.5800      97
158.6000      94
158.6200      96
158.6400      91
158.6600      93
158.6800     143
158.7000     198
158.7200     173
158.7400     126
158.7600     122
158.7800     136
158.8000     145
158.8200     152
158.8400     152
158.8600     150
158.8800     145
158.9000     136
158.9200     112
158.9400      84
158.9600      66
158.9800      58
159.0000      83
159.0200     118
159.0400     138
159.0600     141
159.0800      88
159.1000      24
159.1200      25
159.1400      49
159.1600      61
159.1800      70
159.2000      82
159.2200      92
159.2400      79
159.2600      70
159.2800     124
159.3000     186
159.3200     160
159.3400     106
159.3600      92
159.3800      92
159.4000      82
159.4200      73
159.4400      89
159.4600     112
159.4800     123
159.5000     128
159.5200     127
159.5400     122
159.5600     112
159.5800     102
159.6000     103
159.6200     110
159.6400     119
159.6600     131
159.6800     156
159.7000     178
159.7200     157
159.7400     126
159.7600     132
159.7800     151
159.8000     168
159.8200     180
159.8400     172
159.8600     157
159.8800     144
159.9000     133
159.9200     127
159.9400     122
159.9600     113
159.9800     100
160.0000      72
160.0200      49
160.0400      80
160.0600     121
160.0800     112
160.1000      91
160.1200     117
160.1400     148
160.1600     117
160.1800      67
160.2000      49
160.2200      48
160.2400      70
160.2600      98
160.2800     108
160.3000     110
160.3200     115
160.3400     124
160.3600     145
160.3800     160
160.4000     123
160.4200      72
160.4400      51
160.4600      49
160.4800      79
160.5000     117
160.5200     133
160.5400     140
160.5600     140
160.5800     133
160.6000      98
160.6200      60
160.6400      65
160.6600      86
160.6800      97
160.7000     103
160.7200      99
160.7400      89
160.7600      69
160.7800      50
160.8000      54
160.8200      68
160.8400      77
160.8600      83
160.8800      77
160.9000      72
160.9200      87
160.9400     107
160.9600     109
160.9800     104
161.0000     106
161.0200     110
161.0400     119
161.0600     127
161.0800     123
161.1000     116
161.1200     116
161.1400     115
161.1600     101
161.1800      86
161.2000      97
161.2200     117
161.2400     126
161.2600     130
161.2800     134
161.3000     136
161.3200     128
161.3400     116
161.3600     107
161.3800     102
161.4000     110
161.4200     120
161.4400     109
161.4600      89
161.4800      72
161.5000      57
161.5200      45
161.5400      41
161.5600      66
161.5800      96
161.6000      99
161.6200      93
161.6400      95
161.6600     103
161.6800     121
161.7000     135
161.7200     108
161.7400      73
161.7600      88
161.7800     118
161.8000     126
161.8200     123
161.8400     105
161.8600      83
161.8800      69
161.9000      63
161.9200      74
161.9400      91
161.9600     101
161.9800     108