File: XRD_Tool/log/LDA_sample_name_56789_Psi-0_20180623-131331.txt
138.0000     551
138.0200     573
138.0400     554
138.0600     523
138.0800     517
138.1000     520
138.1200     518
138.1400     517
138.1600     532
138.1800     550
138.2000     547
138.2200     543
138.2400     582
138.2600     629
138.2800     633
138.3000     637
138.3200     729
138.3400     824
138.3600     754
138.3800     641
138.4000     643
138.4200     687
138.4400     713
138.4600     729
138.4800     737
138.5000     747
138.5200     788
138.5400     826
138.5600     783
138.5800     717
138.6000     702
138.6200     717
138.6400     777
138.6600     841
138.6800     834
138.7000     800
138.7200     776
138.7400     763
138.7600     786
138.7800     818
138.8000     815
138.8200     791
138.8400     729
138.8600     678
138.8800     764
138.9000     878
138.9200     865
138.9400     814
138.9600     825
138.9800     857
139.0000     872
139.0200     875
139.0400     851
139.0600     825
139.0800     838
139.1000     863
139.1200     876
139.1400     879
139.1600     855
139.1800     820
139.2000     775
139.2200     748
139.2400     823
139.2600     923
139.2800     948
139.3000     936
139.3200     897
139.3400     861
139.3600     890
139.3800     933
139.4000     908
139.4200     872
139.4400     919
139.4600     981
139.4800     955
139.5000     900
139.5200     882
139.5400     887
139.5600     938
139.5800     993
139.6000     972
139.6200     925
139.6400     906
139.6600     895
139.6800     867
139.7000     847
139.7200     896
139.7400     963
139.7600     988
139.7800     990
139.8000     964
139.8200     935
139.8400     954
139.8600     987
139.8800     992
139.9000     996
139.9200    1050
139.9400    1110
139.9600    1100
139.9800    1055
140.0000     973
140.0200     899
140.0400     932
140.0600    1006
140.0800    1070
140.1000    1125
140.1200    1160
140.1400    1172
140.1600    1116
140.1800    1039
140.2000    1002
140.2200     977
140.2400     937
140.2600     907
140.2800     959
140.3000    1028
140.3200    1027
140.3400     995
140.3600     955
140.3800     920
140.4000     935
140.4200     957
140.4400     919
140.4600     878
140.4800     944
140.5000    1024
140.5200     967
140.5400     878
140.5600     902
140.5800     965
140.6000     993
140.6200    1000
140.6400     972
140.6600     933
140.6800     906
140.7000     899
140.7200     967
140.7400    1031
140.7600     928
140.7800     791
140.8000     818
140.8200     896
140.8400     905
140.8600     882
140.8800     833
140.9000     782
140.9200     781
140.9400     800
140.9600     822
140.9800     842
141.0000     839
141.0200     836
141.0400     879
141.0600     926
141.0800     897
141.1000     845
141.1200     836
141.1400     842
141.1600     835
141.1800     823
141.2000     811
141.2200     794
141.2400     757
141.2600     722
141.2800     742
141.3000     783
141.3200     819
141.3400     847
141.3600     847
141.3800     832
141.4000     802
141.4200     763
141.4400     714
141.4600     670
141.4800     676
141.5000     699
141.5200     710
141.5400     713
141.5600     701
141.5800     680
141.6000     639
141.6200     602
141.6400     618
141.6600     651
141.6800     654
141.7000     658
141.7200     722
141.7400     787
141.7600     739
141.7800     658
141.8000     645
141.8200     666
141.8400     717
141.8600     766
141.8800     738
141.9000     683
141.9200     643
141.9400     625
141.9600     684
141.9800     756
142.0000     741
142.0200     694
142.0400     659
142.0600     635
142.0800     643
142.1000     660
142.1200     662
142.1400     650
142.1600     598
142.1800     541
142.2000     544
142.2200     573
142.2400     617
142.2600     659
142.2800     663
142.3000     653
142.3200     654
142.3400     654
142.3600     623
142.3800     585
142.4000     582
142.4200     592
142.4400     600
142.4600     608
142.4800     616
142.5000     626
142.5200     648
142.5400     668
142.5600     661
142.5800     632
142.6000     545
142.6200     452
142.6400     447
142.6600     485
142.6800     562
142.7000     632
142.7200     592
142.7400     517
142.7600     488
142.7800     482
142.8000     496
142.8200     519
142.8400     547
142.8600     567
142.8800     532
142.9000     478
142.9200     431
142.9400     404
142.9600     467
142.9800     548
143.0000     542
143.0200     513
143.0400     536
143.0600     572
143.0800     568
143.1000     540
143.1200     472
143.1400     410
143.1600     461
143.1800     533
143.2000     487
143.2200     408
143.2400     402
143.2600     419
143.2800     403
143.3000     381
143.3200     402
143.3400     440
143.3600     475
143.3800     496
143.4000     452
143.4200     394
143.4400     398
143.4600     419
143.4800     405
143.5000     386
143.5200     417
143.5400     456
143.5600     440
143.5800     403
143.6000     371
143.6200     349
143.6400     367
143.6600     395
143.6800     396
143.7000     382
143.7200     347
143.7400     315
143.7600     343
143.7800     384
143.8000     375
143.8200     351
143.8400     357
143.8600     371
143.8800     368
143.9000     361
143.9200     364
143.9400     370
143.9600     363
143.9800     357
144.0000     382
144.0200     409
144.0400     381
144.0600     339
144.0800     336
144.1000     353
144.1200     396
144.1400     440
144.1600     434
144.1800     404
144.2000     353
144.2200     302
144.2400     301
144.2600     313
144.2800     295
144.3000     274
144.3200     301
144.3400     340
144.3600     343
144.3800     337
144.4000     362
144.4200     394
144.4400     395
144.4600     379
144.4800     348
144.5000     314
144.5200     298
144.5400     286
144.5600     252
144.5800     221
144.6000     240
144.6200     276
144.6400     292
144.6600     296
144.6800     280
144.7000     265
144.7200     295
144.7400     337
144.7600     346
144.7800     334
144.8000     287
144.8200     238
144.8400     256
144.8600     293
144.8800     298
144.9000     295
144.9200     319
144.9400     344
144.9600     324
144.9800     293
145.0000     295
145.0200     306
145.0400     290
145.0600     264
145.0800     238
145.1000     216
145.1200     209
145.1400     213
145.1600     237
145.1800     266
145.2000     277
145.2200     280
145.2400     278
145.2600     272
145.2800     257
145.3000     244
145.3200     255
145.3400     273
145.3600     282
145.3800     284
145.4000     263
145.4200     241
145.4400     262
145.4600     292
145.4800     277
145.5000     249
145.5200     243
145.5400     243
145.5600     233
145.5800     223
145.6000     236
145.6200     252
145.6400     238
145.6600     224
145.6800     267
145.7000     317
145.7200     289
145.7400     241
145.7600     253
145.7800     276
145.8000     239
145.8200     190
145.8400     208
145.8600     246
145.8800     257
145.9000     256
145.9200     250
145.9400     241
145.9600     224
145.9800     207
146.0000     206
146.0200     213
146.0400     225
146.0600     240
146.0800     259
146.1000     270
146.1200     239
146.1400     206
146.1600     245
146.1800     296
146.2000     263
146.2200     203
146.2400     172
146.2600     163
146.2800     214
146.3000     275
146.3200     273
146.3400     248
146.3600     238
146.3800     234
146.4000     231
146.4200     230
146.4400     231
146.4600     230
146.4800     214
146.5000     194
146.5200     186
146.5400     180
146.5600     167
146.5800     154
146.6000     158
146.6200     168
146.6400     176
146.6600     182
146.6800     176
146.7000     169
146.7200     174
146.7400     180
146.7600     168
146.7800     151
146.8000     149
146.8200     154
146.8400     169
146.8600     191
146.8800     233
146.9000     270
146.9200     244
146.9400     202
146.9600     211
146.9800     236
147.0000     235
147.0200     224
147.0400     219
147.0600     218
147.0800     221
147.1000     224
147.1200     223
147.1400     224
147.1600     235
147.1800     244
147.2000     218
147.2200     182
147.2400     164
147.2600     162
147.2800     200
147.3000     244
147.3200     235
147.3400     212
147.3600     226
147.3800     250
147.4000     254
147.4200     248
147.4400     235
147.4600     222
147.4800     222
147.5000     229
147.5200     241
147.5400     250
147.5600     234
147.5800     213
147.6000     214
147.6200     223
147.6400     230
147.6600     236
147.6800     237
147.7000     236
147.7200     230
147.7400     221
147.7600     205
147.7800     187
147.8000     168
147.8200     152
147.8400     157
147.8600     171
147.8800     180
147.9000     191
147.9200     214
147.9400     236
147.9600     233
147.9800     223
148.0000     236
148.0200     250
148.0400     221
148.0600     182
148.0800     176
148.1000     184
148.1200     194
148.1400     200
148.1600     188
148.1800     172
148.2000     176
148.2200     184
148.2400     177
148.2600     166
148.2800     170
148.3000     177
148.3200     172
148.3400     165
148.3600     173
148.3800     187
148.4000     200
148.4200     215
148.4400     245
148.4600     267
148.4800     220
148.5000     158
148.5200     156
148.5400     175
148.5600     174
148.5800     166
148.6000     155
148.6200     148
148.6400     167
148.6600     198
148.6800     231
148.7000     253
148.7200     217
148.7400     169
148.7600     182
148.7800     212
148.8000     202
148.8200     184
148.8400     201
148.8600     226
148.8800     218
148.9000     194
148.9200     162
148.9400     131
148.9600     130
148.9800     141
149.0000     157
149.0200     173
149.0400     179
149.0600     183
149.0800     197
149.1000     207
149.1200     175
149.1400     137
149.1600     147
149.1800     176
149.2000     195
149.2200     210
149.2400     218
149.2600     217
149.2800     178
149.3000     132
149.3200     128
149.3400     140
149.3600     157
149.3800     176
149.4000     202
149.4200     217
149.4400     172
149.4600     116
149.4800     130
149.5000     168
149.5200     189
149.5400     198
149.5600     182
149.5800     164
149.6000     183
149.6200     213
149.6400     226
149.6600     229
149.6800     216
149.7000     193
149.7200     160
149.7400     128
149.7600     124
149.7800     134
149.8000     152
149.8200     174
149.8400     193
149.8600     206
149.8800     192
149.9000     179
149.9200     218
149.9400     259
149.9600     205
149.9800     129
150.0000     136
150.0200     172
150.0400     190
150.0600     204
150.0800     240
150.1000     270
150.1200     235
150.1400     183
150.1600     179
150.1800     191
150.2000     183
150.2200     169
150.2400     165
150.2600     162
150.2800     142
150.3000     129
150.3200     178
150.3400     235
150.3600     205
150.3800     148
150.4000     128
150.4200     124
150.4400     128
150.4600     134
150.4800     128
150.5000     123
150.5200     143
150.5400     172
150.5600     196
150.5800     216
150.6000     223
150.6200     220
150.6400     194
150.6600     159
150.6800     130
150.7000     113
150.7200     138
150.7400     171
150.7600     159
150.7800     140
150.8000     176
150.8200     223
150.8400     213
150.8600     180
150.8800     139
150.9000     101
150.9200      94
150.9400     103
150.9600     122
150.9800     145
151.0000     165
151.0200     178
151.0400     166
151.0600     149
151.0800     160
151.1000     174
151.1200     145
151.1400     109
151.1600     123
151.1800     155
151.2000     177
151.2200     188
151.2400     167
151.2600     142
151.2800     161
151.3000     184
151.3200     143
151.3400      90
151.3600     102
151.3800     140
151.4000     178
151.4200     202
151.4400     153
151.4600      92
151.4800     119
151.5000     168
151.5200     152
151.5400     121
151.5600     140
151.5800     174
151.6000     176
151.6200     166
151.6400     151
151.6600     140
151.6800     151
151.7000     167
151.7200     164
151.7400     155
151.7600     146
151.7800     140
151.8000     142
151.8200     144
151.8400     126
151.8600     106
151.8800     116
151.9000     138
151.9200     157
151.9400     174
151.9600     189
151.9800     198
152.0000     179
152.0200     156
152.0400     166
152.0600     181
152.0800     148
152.1000     111
152.1200     150
152.1400     205
152.1600     182
152.1800     138
152.2000     144
152.2200     166
152.2400     168
152.2600     162
152.2800     159
152.3000     159
152.3200     168
152.3400     178
152.3600     181
152.3800     182
152.4000     190
152.4200     195
152.4400     173
152.4600     149
152.4800     165
152.5000     190
152.5200     180
152.5400     160
152.5600     162
152.5800     167
152.6000     150
152.6200     127
152.6400     119
152.6600     124
152.6800     159
152.7000     197
152.7200     182
152.7400     153
152.7600     162
152.7800     183
152.8000     191
152.8200     193
152.8400     198
152.8600     196
152.8800     153
152.9000     102
152.9200     101
152.9400     118
152.9600     133
152.9800     146
153.0000     151
153.0200     157
153.0400     181
153.0600     208
153.0800     208
153.1000     193
153.1200     150
153.1400     109
153.1600     135
153.1800     185
153.2000     225
153.2200     251
153.2400     230
153.2600     193
153.2800     171
153.3000     157
153.3200     151
153.3400     150
153.3600     154
153.3800     162
153.4000     175
153.4200     186
153.4400     169
153.4600     146
153.4800     151
153.5000     162
153.5200     150
153.5400     132
153.5600     136
153.5800     147
153.6000     153
153.6200     158
153.6400     169
153.6600     179
153.6800     168
153.7000     153
153.7200     164
153.7400     181
153.7600     170
153.7800     151
153.8000     150
153.8200     154
153.8400     145
153.8600     134
153.8800     141
153.9000     156
153.9200     175
153.9400     195
153.9600     220
153.9800     233
154.0000     183
154.0200     121
154.0400     134
154.0600     170
154.0800     176
154.1000     169
154.1200     157
154.1400     144
154.1600     139
154.1800     135
154.2000     121
154.2200     112
154.2400     145
154.2600     181
154.2800     149
154.3000      99
154.3200     102
154.3400     124
154.3600     133
154.3800     140
154.4000     167
154.4200     190
154.4400     156
154.4600     106
154.4800      88
154.5000      84
154.5200      92
154.5400      99
154.5600      81
154.5800      61
154.6000      84
154.6200     123
154.6400     155
154.6600     177
154.6800     158
154.7000     131
154.7200     149
154.7400     175
154.7600     154
154.7800     121
154.8000     123
154.8200     135
154.8400     129
154.8600     119
154.8800     127
154.9000     141
154.9200     147
154.9400     144
154.9600     119
154.9800      94
155.0000     114
155.0200     145
155.0400     138
155.0600     116
155.0800      92
155.1000      70
155.1200      56
155.1400      56
155.1600     106
155.1800     164
155.2000     157
155.2200     131
155.2400     133
155.2600     142
155.2800     125
155.3000     100
155.3200      95
155.3400     101
155.3600     125
155.3800     153
155.4000     161
155.4200     160
155.4400     154
155.4600     142
155.4800     112
155.5000      86
155.5200     118
155.5400     165
155.5600     169
155.5800     156
155.6000     146
155.6200     140
155.6400     142
155.6600     149
155.6800     156
155.7000     165
155.7200     179
155.7400     188
155.7600     159
155.7800     117
155.8000      90
155.8200      77
155.8400     112
155.8600     151
155.8800     112
155.9000      56
155.9200      72
155.9400     108
155.9600     105
155.9800      92
156.0000     101
156.0200     116
156.0400     119
156.0600     122
156.0800     150
156.1000     180
156.1200     167
156.1400     140
156.1600     131
156.1800     127
156.2000     110
156.2200      90
156.2400      82
156.2600      82
156.2800     107
156.3000     137
156.3200     150
156.3400     157
156.3600     164
156.3800     168
156.4000     150
156.4200     132
156.4400     153
156.4600     181
156.4800     174
156.5000     155
156.5200     151
156.5400     152
156.5600     146
156.5800     145
156.6000     177
156.6200     211
156.6400     182
156.6600     129
156.6800      81
156.7000      44
156.7200      54
156.7400      77
156.7600      78
156.7800      72
156.8000      73
156.8200      79
156.8400      95
156.8600     111
156.8800     108
156.9000     103
156.9200     118
156.9400     134
156.9600     108
156.9800      71
157.0000      58
157.0200      62
157.0400     106
157.0600     158
157.0800     170
157.1000     160
157.1200     125
157.1400      88
157.1600      99
157.1800     126
157.2000     133
157.2200     128
157.2400      98
157.2600      63
157.2800      51
157.3000      50
157.3200      54
157.3400      61
157.3600      70
157.3800      79
157.4000      85
157.4200      86
157.4400      73
157.4600      60
157.4800      71
157.5000      87
157.5200      88
157.5400      90
157.5600     134
157.5800     180
157.6000     157
157.6200     119
157.6400     140
157.6600     171
157.6800     142
157.7000     103
157.7200     137
157.7400     192
157.7600     204
157.7800     196
157.8000     178
157.8200     159
157.8400     157
157.8600     157
157.8800     138
157.9000     116
157.9200     114
157.9400     119
157.9600     114
157.9800     112
158.0000     142
158.0200     174
158.0400     158
158.0600     129
158.0800     138
158.1000     154
158.1200     132
158.1400      99
158.1600      91
158.1800      97
158.2000     125
158.2200     154
158.2400     151
158.2600     136
158.2800     124
158.3000     113
158.3200      92
158.3400      73
158.3600      79
158.3800      95
158.4000     113
158.4200     128
158.4400     130
158.4600     123
158.4800     106
158.5000      90
158.5200     106
158.5400     129
158.5600     130
158.5800     121
158.6000     109
158.6200     101
158.6400     121
158.6600     146
158.6800     136
158.7000     112
158.7200      85
158.7400      65
158.7600      88
158.7800     126
158.8000     154
158.8200     171
158.8400     153
158.8600     124
158.8800     110
158.9000     104
158.9200     110
158.9400     116
158.9600     102
158.9800      83
159.0000      77
159.0200      76
159.0400      70
159.0600      67
159.0800      89
159.1000     115
159.1200     108
159.1400      93
159.1600     103
159.1800     119
159.2000     116
159.2200     108
159.2400     109
159.2600     115
159.2800     136
159.3000     151
159.3200     111
159.3400      62
159.3600      80
159.3800     115
159.4000     110
159.4200      89
159.4400      76
159.4600      71
159.4800      91
159.5000     117
159.5200     120
159.5400     120
159.5600     148
159.5800     180
159.6000     172
159.6200     145
159.6400     105
159.6600      64
159.6800      51
159.7000      53
159.7200      74
159.7400      97
159.7600      96
159.7800      91
159.8000     110
159.8200     129
159.8400     104
159.8600      73
159.8800      97
159.9000     137
159.9200     144
159.9400     140
159.9600     144
159.9800     146
160.0000     116
160.0200      79
160.0400      62
160.0600      68
160.0800     141
160.1000     219
160.1200     190
160.1400     125
160.1600      95
160.1800      83
160.2000      88
160.2200      99
160.2400     106
160.2600     110
160.2800     103
160.3000      95
160.3200     108
160.3400     128
160.3600     137
160.3800     140
160.4000     141
160.4200     140
160.4400     136
160.4600     127
160.4800     106
160.5000      91
160.5200     128
160.5400     169
160.5600     128
160.5800      66
160.6000      61
160.6200      73
160.6400      53
160.6600      29
160.6800      47
160.7000      76
160.7200      80
160.7400      77
160.7600      89
160.7800      99
160.8000      72
160.8200      37
160.8400      36
160.8600      50
160.8800      74
160.9000      97
160.9200     100
160.9400      96
160.9600     102
160.9800     108
161.0000      92
161.0200      75
161.0400      93
161.0600     121
161.0800     131
161.1000     129
161.1200     109
161.1400      89
161.1600     109
161.1800     141
161.2000     156
161.2200     159
161.2400     134
161.2600      97
161.2800      55
161.3000      23
161.3200      54
161.3400      99
161.3600      86
161.3800      57
161.4000      64
161.4200      83
161.4400      87
161.4600      82
161.4800      61
161.5000      42
161.5200      69
161.5400     107
161.5600     100
161.5800      84
161.6000     105
161.6200     141
161.6400     180
161.6600     204
161.6800     146
161.7000      68
161.7200      49
161.7400      54
161.7600      69
161.7800      85
161.8000      91
161.8200      91
161.8400      79
161.8600      65
161.8800      63
161.9000      67
161.9200      84
161.9400     106
161.9600     128
161.9800     147