File: XRD_Tool/log/LDA_sample_name_56789_Psi-24_20180623-131449.txt
138.0000      90
138.0200     127
138.0400     121
138.0600     100
138.0800      94
138.1000      92
138.1200      82
138.1400      73
138.1600      89
138.1800     111
138.2000     114
138.2200     111
138.2400     113
138.2600     115
138.2800     107
138.3000      94
138.3200      76
138.3400      62
138.3600      73
138.3800      92
138.4000      94
138.4200      91
138.4400      93
138.4600      95
138.4800      84
138.5000      68
138.5200      54
138.5400      45
138.5600      61
138.5800      80
138.6000      69
138.6200      53
138.6400      80
138.6600     115
138.6800     105
138.7000      84
138.7200      93
138.7400     108
138.7600      88
138.7800      60
138.8000      64
138.8200      74
138.8400      57
138.8600      35
138.8800      40
138.9000      54
138.9200      58
138.9400      60
138.9600      72
138.9800      82
139.0000      64
139.0200      42
139.0400      60
139.0600      89
139.0800      96
139.1000      91
139.1200      71
139.1400      50
139.1600      54
139.1800      67
139.2000      72
139.2200      74
139.2400      79
139.2600      87
139.2800     103
139.3000     117
139.3200     100
139.3400      78
139.3600     101
139.3800     132
139.4000     116
139.4200      85
139.4400      71
139.4600      68
139.4800      92
139.5000     117
139.5200      97
139.5400      65
139.5600      66
139.5800      80
139.6000      92
139.6200     101
139.6400      92
139.6600      80
139.6800      91
139.7000     106
139.7200      95
139.7400      78
139.7600      91
139.7800     109
139.8000      97
139.8200      79
139.8400      94
139.8600     116
139.8800     107
139.9000      89
139.9200      94
139.9400     101
139.9600      73
139.9800      38
140.0000      38
140.0200      49
140.0400      47
140.0600      41
140.0800      48
140.1000      58
140.1200      58
140.1400      54
140.1600      45
140.1800      39
140.2000      51
140.2200      69
140.2400      74
140.2600      74
140.2800      74
140.3000      74
140.3200      72
140.3400      72
140.3600      79
140.3800      91
140.4000     116
140.4200     140
140.4400     132
140.4600     111
140.4800      85
140.5000      64
140.5200      73
140.5400      94
140.5600     110
140.5800     118
140.6000      98
140.6200      69
140.6400      58
140.6600      58
140.6800      77
140.7000      97
140.7200      87
140.7400      66
140.7600      53
140.7800      45
140.8000      49
140.8200      56
140.8400      56
140.8600      57
140.8800      71
140.9000      88
140.9200      85
140.9400      75
140.9600      65
140.9800      59
141.0000      71
141.0200      88
141.0400      87
141.0600      80
141.0800      80
141.1000      79
141.1200      68
141.1400      59
141.1600      87
141.1800     119
141.2000     101
141.2200      71
141.2400      86
141.2600     109
141.2800      87
141.3000      55
141.3200      65
141.3400      84
141.3600      73
141.3800      55
141.4000      65
141.4200      82
141.4400      72
141.4600      54
141.4800      45
141.5000      41
141.5200      48
141.5400      62
141.5600      81
141.5800     100
141.6000     102
141.6200      99
141.6400      98
141.6600      98
141.6800      96
141.7000      93
141.7200      85
141.7400      75
141.7600      63
141.7800      57
141.8000      78
141.8200     103
141.8400      95
141.8600      75
141.8800      68
141.9000      66
141.9200      66
141.9400      67
141.9600      75
141.9800      80
142.0000      65
142.0200      46
142.0400      55
142.0600      73
142.0800      78
142.1000      76
142.1200      66
142.1400      52
142.1600      38
142.1800      28
142.2000      38
142.2200      53
142.2400      54
142.2600      51
142.2800      53
142.3000      57
142.3200      58
142.3400      61
142.3600      77
142.3800      98
142.4000     116
142.4200     129
142.4400     125
142.4600     113
142.4800      89
142.5000      68
142.5200      77
142.5400      98
142.5600     112
142.5800     120
142.6000     103
142.6200      82
142.6400      83
142.6600      92
142.6800      99
142.7000     103
142.7200      94
142.7400      78
142.7600      55
142.7800      33
142.8000      31
142.8200      41
142.8400      71
142.8600     103
142.8800     102
142.9000      93
142.9200     112
142.9400     134
142.9600     114
142.9800      84
143.0000      83
143.0200      93
143.0400     108
143.0600     117
143.0800      89
143.1000      57
143.1200      72
143.1400      98
143.1600      87
143.1800      63
143.2000      47
143.2200      39
143.2400      51
143.2600      74
143.2800     111
143.3000     142
143.3200     123
143.3400      87
143.3600      69
143.3800      60
143.4000      54
143.4200      53
143.4400      62
143.4600      74
143.4800      78
143.5000      79
143.5200      85
143.5400      93
143.5600     103
143.5800     110
143.6000     102
143.6200      86
143.6400      65
143.6600      46
143.6800      54
143.7000      72
143.7200      90
143.7400     102
143.7600      89
143.7800      67
143.8000      57
143.8200      50
143.8400      38
143.8600      28
143.8800      39
143.9000      57
143.9200      62
143.9400      61
143.9600      58
143.9800      54
144.0000      50
144.0200      49
144.0400      60
144.0600      73
144.0800      73
144.1000      71
144.1200      89
144.1400     105
144.1600      71
144.1800      27
144.2000      36
144.2200      63
144.2400      73
144.2600      76
144.2800      71
144.3000      62
144.3200      48
144.3400      37
144.3600      49
144.3800      67
144.4000      67
144.4200      60
144.4400      60
144.4600      62
144.4800      64
144.5000      66
144.5200      69
144.5400      74
144.5600      81
144.5800      86
144.6000      79
144.6200      72
144.6400      87
144.6600     106
144.6800     103
144.7000      88
144.7200      53
144.7400      23
144.7600      53
144.7800      98
144.8000      96
144.8200      81
144.8400      90
144.8600     103
144.8800      91
144.9000      70
144.9200      55
144.9400      46
144.9600      49
144.9800      56
145.0000      56
145.0200      55
145.0400      57
145.0600      64
145.0800      83
145.1000     103
145.1200     101
145.1400      91
145.1600      83
145.1800      75
145.2000      69
145.2200      67
145.2400      90
145.2600     118
145.2800     126
145.3000     120
145.3200      86
145.3400      47
145.3600      44
145.3800      54
145.4000      49
145.4200      42
145.4400      48
145.4600      62
145.4800      81
145.5000     100
145.5200     101
145.5400      96
145.5600      97
145.5800      98
145.6000      81
145.6200      59
145.6400      49
145.6600      47
145.6800      65
145.7000      88
145.7200      97
145.7400     100
145.7600      97
145.7800      91
145.8000      88
145.8200      83
145.8400      65
145.8600      48
145.8800      64
145.9000      89
145.9200      87
145.9400      78
145.9600      79
145.9800      84
146.0000      86
146.0200      86
146.0400      84
146.0600      84
146.0800      91
146.1000      96
146.1200      77
146.1400      55
146.1600      58
146.1800      69
146.2000      63
146.2200      56
146.2400      74
146.2600      96
146.2800      87
146.3000      68
146.3200      67
146.3400      71
146.3600      67
146.3800      58
146.4000      44
146.4200      32
146.4400      40
146.4600      55
146.4800      67
146.5000      76
146.5200      80
146.5400      80
146.5600      71
146.5800      62
146.6000      63
146.6200      67
146.6400      59
146.6600      50
146.6800      56
146.7000      69
146.7200      82
146.7400      90
146.7600      70
146.7800      43
146.8000      41
146.8200      49
146.8400      57
146.8600      63
146.8800      61
146.9000      60
146.9200      85
146.9400     112
146.9600      94
146.9800      64
147.0000      64
147.0200      78
147.0400     102
147.0600     125
147.0800     122
147.1000     109
147.1200     104
147.1400     103
147.1600     109
147.1800     116
147.2000     118
147.2200     115
147.2400      97
147.2600      74
147.2800      56
147.3000      47
147.3200      71
147.3400     102
147.3600     100
147.3800      91
147.4000     115
147.4200     143
147.4400     118
147.4600      78
147.4800      71
147.5000      78
147.5200      88
147.5400      95
147.5600      76
147.5800      52
147.6000      59
147.6200      75
147.6400      71
147.6600      62
147.6800      65
147.7000      71
147.7200      65
147.7400      57
147.7600      59
147.7800      64
147.8000      66
147.8200      63
147.8400      48
147.8600      33
147.8800      42
147.9000      62
147.9200      92
147.9400     116
147.9600      90
147.9800      54
148.0000      71
148.0200     100
148.0400      82
148.0600      53
148.0800      59
148.1000      80
148.1200     106
148.1400     127
148.1600     112
148.1800      83
148.2000      64
148.2200      51
148.2400      56
148.2600      66
148.2800      66
148.3000      65
148.3200      74
148.3400      84
148.3600      76
148.3800      64
148.4000      72
148.4200      82
148.4400      64
148.4600      39
148.4800      44
148.5000      58
148.5200      60
148.5400      61
148.5600      75
148.5800      89
148.6000      70
148.6200      44
148.6400      50
148.6600      67
148.6800      80
148.7000      88
148.7200      75
148.7400      55
148.7600      48
148.7800      50
148.8000      72
148.8200      97
148.8400      99
148.8600      88
148.8800      64
148.9000      41
148.9200      54
148.9400      82
148.9600     105
148.9800     123
149.0000     121
149.0200     113
149.0400     112
149.0600     110
149.0800      88
149.1000      61
149.1200      50
149.1400      46
149.1600      39
149.1800      32
149.2000      33
149.2200      39
149.2400      50
149.2600      64
149.2800      80
149.3000      93
149.3200      89
149.3400      85
149.3600     108
149.3800     134
149.4000     125
149.4200     105
149.4400     108
149.4600     119
149.4800     125
149.5000     124
149.5200      98
149.5400      69
149.5600      72
149.5800      85
149.6000      86
149.6200      81
149.6400      70
149.6600      59
149.6800      64
149.7000      71
149.7200      53
149.7400      31
149.7600      34
149.7800      46
149.8000      48
149.8200      48
149.8400      58
149.8600      68
149.8800      60
149.9000      50
149.9200      68
149.9400      93
149.9600      90
149.9800      77
150.0000      72
150.0200      69
150.0400      59
150.0600      48
150.0800      37
150.1000      33
150.1200      59
150.1400      93
150.1600     109
150.1800     112
150.2000      88
150.2200      63
150.2400      83
150.2600     113
150.2800     105
150.3000      80
150.3200      53
150.3400      33
150.3600      52
150.3800      80
150.4000      83
150.4200      79
150.4400      93
150.4600     112
150.4800     113
150.5000     107
150.5200     104
150.5400      99
150.5600      76
150.5800      49
150.6000      40
150.6200      42
150.6400      61
150.6600      80
150.6800      67
150.7000      50
150.7200      78
150.7400     113
150.7600      95
150.7800      61
150.8000      57
150.8200      65
150.8400      71
150.8600      76
150.8800      76
150.9000      73
150.9200      67
150.9400      61
150.9600      63
150.9800      68
151.0000      66
151.0200      60
151.0400      43
151.0600      26
151.0800      34
151.1000      53
151.1200      80
151.1400     103
151.1600      88
151.1800      60
151.2000      47
151.2200      41
151.2400      43
151.2600      47
151.2800      41
151.3000      36
151.3200      54
151.3400      78
151.3600      77
151.3800      70
151.4000      80
151.4200      91
151.4400      79
151.4600      58
151.4800      43
151.5000      37
151.5200      58
151.5400      84
151.5600      83
151.5800      72
151.6000      66
151.6200      61
151.6400      50
151.6600      36
151.6800      27
151.7000      22
151.7200      34
151.7400      48
151.7600      45
151.7800      38
151.8000      43
151.8200      50
151.8400      42
151.8600      31
151.8800      35
151.9000      43
151.9200      46
151.9400      51
151.9600      81
151.9800     113
152.0000     107
152.0200      85
152.0400      63
152.0600      42
152.0800      31
152.1000      26
152.1200      36
152.1400      53
152.1600      77
152.1800      99
152.2000     104
152.2200     103
152.2400     107
152.2600     108
152.2800      82
152.3000      50
152.3200      35
152.3400      31
152.3600      45
152.3800      65
152.4000      72
152.4200      75
152.4400      86
152.4600      93
152.4800      65
152.5000      29
152.5200      25
152.5400      36
152.5600      62
152.5800      88
152.6000      87
152.6200      77
152.6400      72
152.6600      65
152.6800      33
152.7000       4
152.7200      38
152.7400      89
152.7600      94
152.7800      82
152.8000      83
152.8200      86
152.8400      74
152.8600      58
152.8800      52
152.9000      50
152.9200      46
152.9400      43
152.9600      42
152.9800      46
153.0000      70
153.0200      97
153.0400      99
153.0600      92
153.0800      92
153.1000      92
153.1200      85
153.1400      77
153.1600      76
153.1800      75
153.2000      59
153.2200      42
153.2400      53
153.2600      72
153.2800      78
153.3000      78
153.3200      78
153.3400      80
153.3600      94
153.3800     106
153.4000      89
153.4200      69
153.4400      86
153.4600     109
153.4800      89
153.5000      55
153.5200      44
153.5400      45
153.5600      63
153.5800      82
153.6000      79
153.6200      68
153.6400      62
153.6600      57
153.6800      47
153.7000      38
153.7200      41
153.7400      48
153.7600      50
153.7800      49
153.8000      43
153.8200      36
153.8400      32
153.8600      31
153.8800      32
153.9000      37
153.9200      60
153.9400      87
153.9600      99
153.9800     102
154.0000      92
154.0200      76
154.0400      58
154.0600      44
154.0800      50
154.1000      63
154.1200      69
154.1400      73
154.1600      77
154.1800      78
154.2000      64
154.2200      51
154.2400      72
154.2600      97
154.2800      77
154.3000      46
154.3200      55
154.3400      71
154.3600      50
154.3800      24
154.4000      47
154.4200      82
154.4400      87
154.4600      76
154.4800      52
154.5000      26
154.5200      21
154.5400      25
154.5600      26
154.5800      28
154.6000      43
154.6200      62
154.6400      71
154.6600      72
154.6800      45
154.7000      13
154.7200      11
154.7400      21
154.7600      31
154.7800      41
154.8000      54
154.8200      66
154.8400      66
154.8600      64
154.8800      69
154.9000      73
154.9200      60
154.9400      43
154.9600      40
154.9800      42
155.0000      49
155.0200      55
155.0400      54
155.0600      53
155.0800      66
155.1000      80
155.1200      79
155.1400      73
155.1600      77
155.1800      82
155.2000      75
155.2200      67
155.2400      79
155.2600      94
155.2800      84
155.3000      67
155.3200      65
155.3400      68
155.3600      65
155.3800      60
155.4000      60
155.4200      60
155.4400      51
155.4600      42
155.4800      43
155.5000      51
155.5200      71
155.5400      87
155.5600      63
155.5800      29
155.6000      27
155.6200      38
155.6400      55
155.6600      68
155.6800      45
155.7000      16
155.7200      32
155.7400      58
155.7600      45
155.7800      24
155.8000      38
155.8200      64
155.8400      75
155.8600      79
155.8800      70
155.9000      57
155.9200      50
155.9400      46
155.9600      37
155.9800      31
156.0000      45
156.0200      65
156.0400      77
156.0600      82
156.0800      72
156.1000      60
156.1200      68
156.1400      81
156.1600      79
156.1800      69
156.2000      49
156.2200      29
156.2400      29
156.2600      38
156.2800      50
156.3000      64
156.3200      78
156.3400      84
156.3600      50
156.3800       8
156.4000       6
156.4200      19
156.4400      29
156.4600      35
156.4800      34
156.5000      34
156.5200      51
156.5400      74
156.5600      95
156.5800     110
156.6000     100
156.6200      80
156.6400      60
156.6600      45
156.6800      54
156.7000      66
156.7200      51
156.7400      30
156.7600      32
156.7800      41
156.8000      34
156.8200      26
156.8400      53
156.8600      86
156.8800      84
156.9000      68
156.9200      52
156.9400      36
156.9600      18
156.9800       6
157.0000      26
157.0200      52
157.0400      46
157.0600      32
157.0800      36
157.1000      46
157.1200      46
157.1400      45
157.1600      54
157.1800      64
157.2000      52
157.2200      37
157.2400      46
157.2600      62
157.2800      71
157.3000      80
157.3200     101
157.3400     123
157.3600     128
157.3800     119
157.4000      73
157.4200      23
157.4400      18
157.4600      31
157.4800      37
157.5000      40
157.5200      35
157.5400      28
157.5600      24
157.5800      25
157.6000      39
157.6200      55
157.6400      46
157.6600      33
157.6800      45
157.7000      66
157.7200      80
157.7400      87
157.7600      66
157.7800      44
157.8000      74
157.8200     115
157.8400     112
157.8600      91
157.8800      60
157.9000      36
157.9200      59
157.9400      88
157.9600      57
157.9800      10
158.0000       6
158.0200      22
158.0400      46
158.0600      71
158.0800      81
158.1000      86
158.1200      95
158.1400     101
158.1600      87
158.1800      68
158.2000      65
158.2200      71
158.2400      87
158.2600     101
158.2800      82
158.3000      57
158.3200      67
158.3400      87
158.3600      87
158.3800      80
158.4000      78
158.4200      79
158.4400      88
158.4600      93
158.4800      60
158.5000      19
158.5200      15
158.5400      26
158.5600      42
158.5800      53
158.6000      30
158.6200       2
158.6400       9
158.6600      29
158.6800      41
158.7000      48
158.7200      52
158.7400      54
158.7600      61
158.7800      66
158.8000      59
158.8200      52
158.8400      67
158.8600      88
158.8800      96
158.9000      93
158.9200      65
158.9400      32
158.9600      24
158.9800      27
159.0000      40
159.0200      54
159.0400      60
159.0600      61
159.0800      60
159.1000      57
159.1200      49
159.1400      42
159.1600      50
159.1800      62
159.2000      62
159.2200      59
159.2400      58
159.2600      57
159.2800      53
159.3000      52
159.3200      77
159.3400     101
159.3600      60
159.3800       6
159.4000       9
159.4200      34
159.4400      57
159.4600      73
159.4800      61
159.5000      39
159.5200      25
159.5400      20
159.5600      38
159.5800      61
159.6000      59
159.6200      51
159.6400      63
159.6600      78
159.6800      63
159.7000      42
159.7200      46
159.7400      57
159.7600      55
159.7800      48
159.8000      48
159.8200      50
159.8400      52
159.8600      53
159.8800      49
159.9000      47
159.9200      65
159.9400      86
159.9600      82
159.9800      67
160.0000      52
160.0200      41
160.0400      58
160.0600      84
160.0800      97
160.1000      99
160.1200      71
160.1400      38
160.1600      40
160.1800      55
160.2000      67
160.2200      73
160.2400      64
160.2600      51
160.2800      56
160.3000      66
160.3200      65
160.3400      57
160.3600      39
160.3800      23
160.4000      42
160.4200      67
160.4400      59
160.4600      42
160.4800      53
160.5000      72
160.5200      73
160.5400      67
160.5600      61
160.5800      57
160.6000      63
160.6200      71
160.6400      70
160.6600      62
160.6800      33
160.7000       1
160.7200       4
160.7400      19
160.7600      27
160.7800      37
160.8000      64
160.8200      90
160.8400      81
160.8600      59
160.8800      45
160.9000      37
160.9200      36
160.9400      38
160.9600      41
160.9800      43
161.0000      34
161.0200      24
161.0400      34
161.0600      50
161.0800      57
161.1000      58
161.1200      44
161.1400      28
161.1600      32
161.1800      42
161.2000      37
161.2200      30
161.2400      35
161.2600      44
161.2800      51
161.3000      52
161.3200      28
161.3400       3
161.3600      25
161.3800      58
161.4000      54
161.4200      43
161.4400      69
161.4600      99
161.4800      77
161.5000      39
161.5200      23
161.5400      16
161.5600      14
161.5800      15
161.6000      19
161.6200      25
161.6400      31
161.6600      35
161.6800      31
161.7000      27
161.7200      41
161.7400      61
161.7600      73
161.7800      75
161.8000      49
161.8200      19
161.8400      34
161.8600      59
161.8800      47
161.9000      27
161.9200      35
161.9400      56
161.9600      79
161.9800      96