File: XRD_Tool/log/LDA_sample_name_56789_Psi-24_20180623-131346.txt
138.0000     110
138.0200      98
138.0400      91
138.0600      89
138.0800      97
138.1000     108
138.1200     111
138.1400     111
138.1600     111
138.1800     109
138.2000     102
138.2200      91
138.2400      73
138.2600      57
138.2800      63
138.3000      76
138.3200      82
138.3400      86
138.3600      88
138.3800      89
138.4000      80
138.4200      72
138.4400      81
138.4600      98
138.4800     120
138.5000     138
138.5200     127
138.5400     111
138.5600     125
138.5800     144
138.6000     125
138.6200      96
138.6400      90
138.6600      97
138.6800     116
138.7000     135
138.7200     130
138.7400     118
138.7600     113
138.7800     108
138.8000      86
138.8200      64
138.8400      72
138.8600      89
138.8800      93
138.9000      93
138.9200     101
138.9400     111
138.9600     109
138.9800     101
139.0000      80
139.0200      57
139.0400      52
139.0600      59
139.0800      88
139.1000     118
139.1200     108
139.1400      86
139.1600      82
139.1800      86
139.2000      90
139.2200      91
139.2400      75
139.2600      60
139.2800      79
139.3000     105
139.3200     101
139.3400      86
139.3600      79
139.3800      77
139.4000      82
139.4200      87
139.4400      80
139.4600      72
139.4800      82
139.5000      96
139.5200      89
139.5400      74
139.5600      64
139.5800      58
139.6000      67
139.6200      76
139.6400      60
139.6600      41
139.6800      57
139.7000      81
139.7200      77
139.7400      61
139.7600      50
139.7800      43
139.8000      51
139.8200      65
139.8400      81
139.8600      96
139.8800     111
139.9000     119
139.9200      97
139.9400      67
139.9600      55
139.9800      52
140.0000      54
140.0200      61
140.0400      85
140.0600     110
140.0800     113
140.1000     112
140.1200     133
140.1400     154
140.1600     128
140.1800      92
140.2000      93
140.2200     103
140.2400      86
140.2600      61
140.2800      51
140.3000      48
140.3200      52
140.3400      61
140.3600      83
140.3800     105
140.4000      95
140.4200      75
140.4400      62
140.4600      53
140.4800      49
140.5000      48
140.5200      55
140.5400      65
140.5600      74
140.5800      82
140.6000      93
140.6200     102
140.6400      98
140.6600      93
140.6800     116
140.7000     142
140.7200     128
140.7400     102
140.7600      93
140.7800      93
140.8000     105
140.8200     117
140.8400     114
140.8600     100
140.8800      68
140.9000      37
140.9200      54
140.9400      84
140.9600      86
140.9800      77
141.0000      76
141.0200      77
141.0400      70
141.0600      62
141.0800      67
141.1000      78
141.1200      91
141.1400     104
141.1600     114
141.1800     123
141.2000     137
141.2200     147
141.2400     127
141.2600      98
141.2800      84
141.3000      78
141.3200      87
141.3400      94
141.3600      68
141.3800      34
141.4000      33
141.4200      44
141.4400      48
141.4600      51
141.4800      54
141.5000      60
141.5200      74
141.5400      88
141.5600      81
141.5800      69
141.6000      80
141.6200     101
141.6400     127
141.6600     147
141.6800     129
141.7000      98
141.7200      84
141.7400      80
141.7600     101
141.7800     124
141.8000     112
141.8200      91
141.8400      95
141.8600     102
141.8800      77
141.9000      48
141.9200      59
141.9400      84
141.9600      94
141.9800      97
142.0000      97
142.0200      93
142.0400      81
142.0600      66
142.0800      59
142.1000      56
142.1200      60
142.1400      67
142.1600      82
142.1800      93
142.2000      69
142.2200      38
142.2400      37
142.2600      49
142.2800      61
142.3000      74
142.3200      92
142.3400     110
142.3600     118
142.3800     119
142.4000     102
142.4200      79
142.4400      64
142.4600      57
142.4800      77
142.5000     102
142.5200     102
142.5400      92
142.5600      82
142.5800      74
142.6000      79
142.6200      85
142.6400      70
142.6600      51
142.6800      62
142.7000      80
142.7200      76
142.7400      69
142.7600      84
142.7800     104
142.8000     109
142.8200     106
142.8400      96
142.8600      81
142.8800      51
142.9000      24
142.9200      42
142.9400      74
142.9600      84
142.9800      85
143.0000      80
143.0200      74
143.0400      79
143.0600      86
143.0800      75
143.1000      60
143.1200      63
143.1400      73
143.1600      83
143.1800      92
143.2000      93
143.2200      92
143.2400      94
143.2600      96
143.2800      86
143.3000      75
143.3200      78
143.3400      84
143.3600      85
143.3800      84
143.4000      86
143.4200      89
143.4400      84
143.4600      77
143.4800      76
143.5000      80
143.5200      91
143.5400     101
143.5600      91
143.5800      74
143.6000      64
143.6200      58
143.6400      67
143.6600      79
143.6800      84
143.7000      83
143.7200      67
143.7400      51
143.7600      65
143.7800      90
143.8000     105
143.8200     116
143.8400     119
143.8600     117
143.8800     106
143.9000      94
143.9200      92
143.9400      94
143.9600      95
143.9800      94
144.0000      88
144.0200      81
144.0400      82
144.0600      86
144.0800      87
144.1000      86
144.1200      81
144.1400      81
144.1600     108
144.1800     137
144.2000     119
144.2200      87
144.2400      72
144.2600      67
144.2800      82
144.3000     101
144.3200     103
144.3400      96
144.3600      71
144.3800      45
144.4000      50
144.4200      68
144.4400      86
144.4600     105
144.4800     129
144.5000     149
144.5200     134
144.5400     111
144.5600     113
144.5800     120
144.6000     100
144.6200      74
144.6400      65
144.6600      66
144.6800      80
144.7000      98
144.7200     103
144.7400     103
144.7600     108
144.7800     110
144.8000      90
144.8200      70
144.8400      90
144.8600     121
144.8800     124
144.9000     119
144.9200     129
144.9400     141
144.9600     133
144.9800     116
145.0000      95
145.0200      75
145.0400      64
145.0600      59
145.0800      70
145.1000      87
145.1200      94
145.1400      96
145.1600      86
145.1800      71
145.2000      46
145.2200      26
145.2400      43
145.2600      70
145.2800      77
145.3000      75
145.3200      75
145.3400      77
145.3600      94
145.3800     109
145.4000      91
145.4200      65
145.4400      72
145.4600      89
145.4800      89
145.5000      82
145.5200      65
145.5400      49
145.5600      53
145.5800      65
145.6000      75
145.6200      85
145.6400      94
145.6600     101
145.6800     103
145.7000     101
145.7200      94
145.7400      86
145.7600      86
145.7800      87
145.8000      70
145.8200      53
145.8400      71
145.8600      96
145.8800      89
145.9000      73
145.9200      79
145.9400      92
145.9600      98
145.9800     102
146.0000     104
146.0200     106
146.0400     107
146.0600     105
146.0800      93
146.1000      80
146.1200      82
146.1400      88
146.1600      87
146.1800      84
146.2000      86
146.2200      85
146.2400      59
146.2600      34
146.2800      64
146.3000     107
146.3200     102
146.3400      83
146.3600      89
146.3800     102
146.4000     101
146.4200      95
146.4400      89
146.4600      85
146.4800      91
146.5000      95
146.5200      69
146.5400      39
146.5600      44
146.5800      61
146.6000      65
146.6200      66
146.6400      85
146.6600     106
146.6800     101
146.7000      87
146.7200      88
146.7400      93
146.7600      91
146.7800      89
146.8000      95
146.8200     102
146.8400      94
146.8600      82
146.8800      80
146.9000      83
146.9200      90
146.9400      93
146.9600      71
146.9800      45
147.0000      52
147.0200      70
147.0400      78
147.0600      82
147.0800      86
147.1000      90
147.1200      91
147.1400      90
147.1600      89
147.1800      85
147.2000      74
147.2200      64
147.2400      71
147.2600      85
147.2800      97
147.3000     106
147.3200     102
147.3400      93
147.3600      91
147.3800      93
147.4000     105
147.4200     116
147.4400     102
147.4600      80
147.4800      68
147.5000      61
147.5200      59
147.5400      59
147.5600      60
147.5800      64
147.6000      77
147.6200      88
147.6400      74
147.6600      56
147.6800      68
147.7000      88
147.7200      89
147.7400      84
147.7600      81
147.7800      78
147.8000      73
147.8200      69
147.8400      72
147.8600      78
147.8800      87
147.9000      93
147.9200      79
147.9400      60
147.9600      55
147.9800      56
148.0000      67
148.0200      82
148.0400     105
148.0600     124
148.0800     105
148.1000      79
148.1200      96
148.1400     124
148.1600     117
148.1800     103
148.2000     119
148.2200     140
148.2400     128
148.2600     102
148.2800      74
148.3000      53
148.3200      65
148.3400      86
148.3600      79
148.3800      65
148.4000      74
148.4200      91
148.4400     100
148.4600     103
148.4800      93
148.5000      81
148.5200      92
148.5400     106
148.5600      88
148.5800      63
148.6000      60
148.6200      66
148.6400      70
148.6600      71
148.6800      55
148.7000      38
148.7200      46
148.7400      63
148.7600      72
148.7800      78
148.8000      84
148.8200      89
148.8400      89
148.8600      87
148.8800      87
148.9000      84
148.9200      66
148.9400      49
148.9600      67
148.9800      92
149.0000      87
149.0200      74
149.0400      86
149.0600     106
149.0800     119
149.1000     123
149.1200      94
149.1400      58
149.1600      50
149.1800      56
149.2000      72
149.2200      92
149.2400     114
149.2600     129
149.2800     112
149.3000      84
149.3200      66
149.3400      56
149.3600      66
149.3800      83
149.4000      92
149.4200      96
149.4400      93
149.4600      86
149.4800      71
149.5000      61
149.5200      89
149.5400     124
149.5600     112
149.5800      85
149.6000      70
149.6200      64
149.6400      80
149.6600      98
149.6800      89
149.7000      75
149.7200      93
149.7400     113
149.7600      81
149.7800      41
149.8000      59
149.8200      96
149.8400     105
149.8600     103
149.8800     103
149.9000      99
149.9200      75
149.9400      49
149.9600      58
149.9800      76
150.0000      77
150.0200      71
150.0400      62
150.0600      57
150.0800      75
150.1000      98
150.1200      94
150.1400      84
150.1600      91
150.1800     103
150.2000     107
150.2200     105
150.2400      93
150.2600      84
150.2800     111
150.3000     144
150.3200     127
150.3400      95
150.3600      83
150.3800      77
150.4000      58
150.4200      39
150.4400      46
150.4600      66
150.4800      91
150.5000     112
150.5200      98
150.5400      76
150.5600      81
150.5800      97
150.6000     114
150.6200     125
150.6400     100
150.6600      67
150.6800      69
150.7000      82
150.7200      81
150.7400      79
150.7600      92
150.7800     109
150.8000     108
150.8200     101
150.8400     102
150.8600      99
150.8800      58
150.9000      13
150.9200      26
150.9400      62
150.9600      98
150.9800     127
151.0000     121
151.0200     103
151.0400      97
151.0600      96
151.0800     103
151.1000     108
151.1200      83
151.1400      50
151.1600      32
151.1800      26
151.2000      47
151.2200      78
151.2400     109
151.2600     135
151.2800     141
151.3000     135
151.3200     111
151.3400      79
151.3600      52
151.3800      35
151.4000      63
151.4200     101
151.4400     101
151.4600      88
151.4800      91
151.5000     102
151.5200     117
151.5400     126
151.5600     101
151.5800      73
151.6000      90
151.6200     119
151.6400     111
151.6600      92
151.6800      85
151.7000      84
151.7200      86
151.7400      87
151.7600      70
151.7800      51
151.8000      57
151.8200      69
151.8400      64
151.8600      54
151.8800      51
151.9000      53
151.9200      65
151.9400      79
151.9600      88
151.9800      93
152.0000      91
152.0200      85
152.0400      67
152.0600      53
152.0800      76
152.1000     108
152.1200     108
152.1400      97
152.1600      93
152.1800      92
152.2000      98
152.2200     103
152.2400      93
152.2600      80
152.2800      82
152.3000      91
152.3200     108
152.3400     124
152.3600     118
152.3800     107
152.4000     106
152.4200     103
152.4400      62
152.4600      15
152.4800      13
152.5000      33
152.5200      78
152.5400     124
152.5600     130
152.5800     119
152.6000     106
152.6200      93
152.6400      80
152.6600      71
152.6800      77
152.7000      83
152.7200      57
152.7400      27
152.7600      34
152.7800      54
152.8000      64
152.8200      70
152.8400      76
152.8600      83
152.8800      97
152.9000     109
152.9200     101
152.9400      88
152.9600      95
152.9800     107
153.0000     107
153.0200     102
153.0400      92
153.0600      83
153.0800      86
153.1000      89
153.1200      68
153.1400      44
153.1600      45
153.1800      59
153.2000      85
153.2200     106
153.2400      84
153.2600      52
153.2800      65
153.3000      92
153.3200     107
153.3400     113
153.3600      96
153.3800      74
153.4000      70
153.4200      72
153.4400      64
153.4600      57
153.4800      77
153.5000      97
153.5200      69
153.5400      30
153.5600      39
153.5800      65
153.6000      81
153.6200      92
153.6400      98
153.6600      99
153.6800      82
153.7000      61
153.7200      56
153.7400      61
153.7600      76
153.7800      96
153.8000     114
153.8200     130
153.8400     131
153.8600     125
153.8800     109
153.9000      88
153.9200      59
153.9400      30
153.9600      19
153.9800      23
154.0000      64
154.0200     110
154.0400     107
154.0600      87
154.0800      77
154.1000      73
154.1200      78
154.1400      82
154.1600      67
154.1800      51
154.2000      65
154.2200      88
154.2400      93
154.2600      90
154.2800      84
154.3000      76
154.3200      71
154.3400      71
154.3600      89
154.3800     112
154.4000     117
154.4200     114
154.4400     104
154.4600      96
154.4800     106
154.5000     121
154.5200     118
154.5400     106
154.5600      87
154.5800      68
154.6000      59
154.6200      55
154.6400      49
154.6600      45
154.6800      46
154.7000      53
154.7200      75
154.7400     101
154.7600     119
154.7800     129
154.8000     119
154.8200     104
154.8400     107
154.8600     116
154.8800     115
154.9000     108
154.9200      88
154.9400      68
154.9600      81
154.9800     104
155.0000     111
155.0200     111
155.0400     111
155.0600     109
155.0800     102
155.1000      91
155.1200      73
155.1400      54
155.1600      40
155.1800      34
155.2000      55
155.2200      82
155.2400      87
155.2600      84
155.2800      88
155.3000      91
155.3200      82
155.3400      70
155.3600      63
155.3800      60
155.4000      64
155.4200      72
155.4400      90
155.4600     108
155.4800     108
155.5000     102
155.5200     106
155.5400     111
155.5600     104
155.5800      94
155.6000      92
155.6200      93
155.6400      88
155.6600      81
155.6800      84
155.7000      88
155.7200      85
155.7400      83
155.7600     101
155.7800     122
155.8000     118
155.8200     104
155.8400      89
155.8600      74
155.8800      69
155.9000      68
155.9200      74
155.9400      81
155.9600      84
155.9800      85
156.0000      76
156.0200      70
156.0400      96
156.0600     126
156.0800     114
156.1000      90
156.1200      86
156.1400      86
156.1600      66
156.1800      41
156.2000      29
156.2200      28
156.2400      47
156.2600      72
156.2800      84
156.3000      88
156.3200      80
156.3400      68
156.3600      58
156.3800      50
156.4000      55
156.4200      64
156.4400      63
156.4600      63
156.4800      81
156.5000     102
156.5200      95
156.5400      78
156.5600      66
156.5800      54
156.6000      30
156.6200      11
156.6400      37
156.6600      76
156.6800      87
156.7000      87
156.7200      88
156.7400      89
156.7600      82
156.7800      72
156.8000      65
156.8200      61
156.8400      64
156.8600      67
156.8800      53
156.9000      40
156.9200      62
156.9400      92
156.9600      92
156.9800      82
157.0000      79
157.0200      78
157.0400      72
157.0600      62
157.0800      43
157.1000      25
157.1200      22
157.1400      30
157.1600      55
157.1800      79
157.2000      64
157.2200      45
157.2400      81
157.2600     131
157.2800     136
157.3000     122
157.3200      96
157.3400      70
157.3600      64
157.3800      68
157.4000      81
157.4200      92
157.4400      81
157.4600      66
157.4800      74
157.5000      90
157.5200      95
157.5400      91
157.5600      67
157.5800      43
157.6000      64
157.6200      95
157.6400      93
157.6600      77
157.6800      66
157.7000      59
157.7200      67
157.7400      81
157.7600      98
157.7800     113
157.8000     108
157.8200      99
157.8400     107
157.8600     114
157.8800      84
157.9000      49
157.9200      56
157.9400      78
157.9600      91
157.9800     102
158.0000     113
158.0200     119
158.0400      93
158.0600      63
158.0800      73
158.1000      94
158.1200      89
158.1400      72
158.1600      51
158.1800      35
158.2000      48
158.2200      68
158.2400      68
158.2600      60
158.2800      57
158.3000      55
158.3200      51
158.3400      48
158.3600      50
158.3800      55
158.4000      62
158.4200      68
158.4400      67
158.4600      67
158.4800      89
158.5000     116
158.5200     128
158.5400     131
158.5600     121
158.5800     104
158.6000      83
158.6200      64
158.6400      57
158.6600      56
158.6800      58
158.7000      65
158.7200      85
158.7400     105
158.7600      94
158.7800      75
158.8000      81
158.8200      91
158.8400      74
158.8600      51
158.8800      51
158.9000      57
158.9200      42
158.9400      25
158.9600      48
158.9800      77
159.0000      63
159.0200      35
159.0400      32
159.0600      37
159.0800      40
159.1000      44
159.1200      55
159.1400      66
159.1600      60
159.1800      54
159.2000      78
159.2200     103
159.2400      75
159.2600      36
159.2800      54
159.3000      86
159.3200      78
159.3400      58
159.3600      59
159.3800      67
159.4000      62
159.4200      54
159.4400      59
159.4600      67
159.4800      60
159.5000      49
159.5200      43
159.5400      39
159.5600      35
159.5800      34
159.6000      50
159.6200      68
159.6400      66
159.6600      60
159.6800      77
159.7000      98
159.7200      94
159.7400      83
159.7600      87
159.7800      97
159.8000     104
159.8200     106
159.8400      86
159.8600      62
159.8800      58
159.9000      60
159.9200      54
159.9400      42
159.9600      20
159.9800       0
160.0000      12
160.0200      35
160.0400      54
160.0600      68
160.0800      62
160.1000      51
160.1200      50
160.1400      53
160.1600      49
160.1800      47
160.2000      60
160.2200      73
160.2400      53
160.2600      24
160.2800      22
160.3000      28
160.3200      29
160.3400      28
160.3600      34
160.3800      42
160.4000      55
160.4200      64
160.4400      48
160.4600      29
160.4800      43
160.5000      66
160.5200      62
160.5400      48
160.5600      34
160.5800      25
160.6000      36
160.6200      54
160.6400      64
160.6600      67
160.6800      55
160.7000      40
160.7200      42
160.7400      50
160.7600      58
160.7800      63
160.8000      54
160.8200      44
160.8400      53
160.8600      68
160.8800      78
160.9000      87
160.9200     101
160.9400     109
160.9600      78
160.9800      41
161.0000      46
161.0200      66
161.0400      79
161.0600      88
161.0800      89
161.1000      87
161.1200      85
161.1400      81
161.1600      70
161.1800      55
161.2000      35
161.2200      18
161.2400      23
161.2600      37
161.2800      49
161.3000      60
161.3200      66
161.3400      69
161.3600      67
161.3800      61
161.4000      43
161.4200      28
161.4400      47
161.4600      71
161.4800      58
161.5000      37
161.5200      51
161.5400      72
161.5600      58
161.5800      32
161.6000      18
161.6200      12
161.6400      24
161.6600      41
161.6800      45
161.7000      44
161.7200      48
161.7400      55
161.7600      65
161.7800      74
161.8000      65
161.8200      52
161.8400      59
161.8600      69
161.8800      57
161.9000      42
161.9200      49
161.9400      60
161.9600      47
161.9800      31