File: XRD_Tool/log/LDA_sample_name_01_Psi-45_20180623-132346.txt
143.0000     231
143.0200     249
143.0400     257
143.0600     262
143.0800     270
143.1000     270
143.1200     220
143.1400     161
143.1600     157
143.1800     176
143.2000     200
143.2200     227
143.2400     256
143.2600     273
143.2800     226
143.3000     174
143.3200     221
143.3400     290
143.3600     279
143.3800     241
143.4000     235
143.4200     239
143.4400     233
143.4600     227
143.4800     242
143.5000     260
143.5200     243
143.5400     212
143.5600     176
143.5800     142
143.6000     125
143.6200     128
143.6400     199
143.6600     280
143.6800     276
143.7000     242
143.7200     230
143.7400     229
143.7600     243
143.7800     258
143.8000     248
143.8200     229
143.8400     215
143.8600     203
143.8800     193
143.9000     184
143.9200     180
143.9400     183
143.9600     211
143.9800     236
144.0000     199
144.0200     148
144.0400     154
144.0600     179
144.0800     192
144.1000     196
144.1200     179
144.1400     160
144.1600     179
144.1800     211
144.2000     233
144.2200     248
144.2400     246
144.2600     237
144.2800     218
144.3000     198
144.3200     186
144.3400     183
144.3600     205
144.3800     235
144.4000     250
144.4200     256
144.4400     239
144.4600     219
144.4800     230
144.5000     248
144.5200     235
144.5400     211
144.5600     202
144.5800     200
144.6000     210
144.6200     216
144.6400     182
144.6600     143
144.6800     159
144.7000     193
144.7200     212
144.7400     219
144.7600     203
144.7800     178
144.8000     161
144.8200     157
144.8400     200
144.8600     250
144.8800     243
144.9000     220
144.9200     232
144.9400     259
144.9600     289
144.9800     310
145.0000     276
145.0200     228
145.0400     220
145.0600     229
145.0800     240
145.1000     251
145.1200     259
145.1400     261
145.1600     246
145.1800     224
145.2000     204
145.2200     188
145.2400     194
145.2600     204
145.2800     197
145.3000     188
145.3200     201
145.3400     220
145.3600     227
145.3800     232
145.4000     252
145.4200     274
145.4400     276
145.4600     270
145.4800     261
145.5000     250
145.5200     237
145.5400     229
145.5600     253
145.5800     281
145.6000     269
145.6200     246
145.6400     250
145.6600     261
145.6800     257
145.7000     249
145.7200     254
145.7400     258
145.7600     230
145.7800     202
145.8000     234
145.8200     275
145.8400     240
145.8600     180
145.8800     150
145.9000     142
145.9200     187
145.9400     237
145.9600     205
145.9800     156
146.0000     182
146.0200     228
146.0400     219
146.0600     201
146.0800     241
146.1000     296
146.1200     303
146.1400     292
146.1600     289
146.1800     288
146.2000     282
146.2200     273
146.2400     259
146.2600     242
146.2800     217
146.3000     190
146.3200     168
146.3400     155
146.3600     180
146.3800     225
146.4000     290
146.4200     343
146.4400     293
146.4600     217
146.4800     224
146.5000     254
146.5200     231
146.5400     188
146.5600     153
146.5800     129
146.6000     144
146.6200     173
146.6400     200
146.6600     220
146.6800     207
146.7000     188
146.7200     205
146.7400     234
146.7600     245
146.7800     248
146.8000     248
146.8200     248
146.8400     259
146.8600     266
146.8800     223
146.9000     177
146.9200     211
146.9400     263
146.9600     247
146.9800     210
147.0000     208
147.0200     219
147.0400     223
147.0600     222
147.0800     208
147.1000     196
147.1200     227
147.1400     257
147.1600     196
147.1800     114
147.2000     113
147.2200     146
147.2400     181
147.2600     216
147.2800     248
147.3000     274
147.3200     280
147.3400     275
147.3600     260
147.3800     247
147.4000     272
147.4200     301
147.4400     272
147.4600     226
147.4800     212
147.5000     215
147.5200     243
147.5400     272
147.5600     257
147.5800     230
147.6000     223
147.6200     225
147.6400     225
147.6600     232
147.6800     274
147.7000     314
147.7200     269
147.7400     200
147.7600     174
147.7800     172
147.8000     200
147.8200     235
147.8400     245
147.8600     240
147.8800     210
147.9000     182
147.9200     213
147.9400     254
147.9600     230
147.9800     189
148.0000     194
148.0200     220
148.0400     256
148.0600     286
148.0800     263
148.1000     225
148.1200     217
148.1400     219
148.1600     214
148.1800     208
148.2000     209
148.2200     211
148.2400     206
148.2600     199
148.2800     194
148.3000     193
148.3200     209
148.3400     229
148.3600     239
148.3800     242
148.4000     233
148.4200     224
148.4400     237
148.4600     251
148.4800     226
148.5000     192
148.5200     185
148.5400     189
148.5600     195
148.5800     205
148.6000     238
148.6200     273
148.6400     275
148.6600     263
148.6800     249
148.7000     234
148.7200     211
148.7400     188
148.7600     181
148.7800     184
148.8000     197
148.8200     223
148.8400     289
148.8600     345
148.8800     273
148.9000     169
148.9200     167
148.9400     204
148.9600     237
148.9800     261
149.0000     245
149.0200     219
149.0400     220
149.0600     227
149.0800     207
149.1000     187
149.1200     214
149.1400     252
149.1600     251
149.1800     235
149.2000     218
149.2200     205
149.2400     222
149.2600     245
149.2800     245
149.3000     236
149.3200     235
149.3400     238
149.3600     243
149.3800     241
149.4000     202
149.4200     160
149.4400     175
149.4600     211
149.4800     240
149.5000     266
149.5200     290
149.5400     305
149.5600     272
149.5800     226
149.6000     212
149.6200     214
149.6400     241
149.6600     265
149.6800     231
149.7000     185
149.7200     199
149.7400     236
149.7600     268
149.7800     292
149.8000     289
149.8200     271
149.8400     235
149.8600     201
149.8800     219
149.9000     252
149.9200     260
149.9400     259
149.9600     266
149.9800     272
150.0000     256
150.0200     232
150.0400     203
150.0600     183
150.0800     210
150.1000     249
150.1200     254
150.1400     243
150.1600     214
150.1800     185
150.2000     191
150.2200     207
150.2400     203
150.2600     196
150.2800     217
150.3000     244
150.3200     246
150.3400     235
150.3600     206
150.3800     176
150.4000     176
150.4200     193
150.4400     233
150.4600     274
150.4800     270
150.5000     248
150.5200     223
150.5400     197
150.5600     171
150.5800     153
150.6000     175
150.6200     210
150.6400     233
150.6600     246
150.6800     234
150.7000     215
150.7200     209
150.7400     213
150.7600     232
150.7800     255
150.8000     263
150.8200     263
150.8400     251
150.8600     238
150.8800     235
150.9000     238
150.9200     244
150.9400     255
150.9600     278
150.9800     298
151.0000     276
151.0200     244
151.0400     240
151.0600     243
151.0800     218
151.1000     189
151.1200     195
151.1400     211
151.1600     209
151.1800     197
151.2000     178
151.2200     160
151.2400     164
151.2600     178
151.2800     204
151.3000     224
151.3200     194
151.3400     152
151.3600     150
151.3800     165
151.4000     190
151.4200     213
151.4400     209
151.4600     191
151.4800     153
151.5000     119
151.5200     145
151.5400     189
151.5600     203
151.5800     206
151.6000     216
151.6200     225
151.6400     219
151.6600     207
151.6800     197
151.7000     189
151.7200     194
151.7400     203
151.7600     207
151.7800     212
151.8000     230
151.8200     248
151.8400     233
151.8600     206
151.8800     187
151.9000     182
151.9200     227
151.9400     277
151.9600     247
151.9800     193
152.0000     177
152.0200     179
152.0400     186
152.0600     198
152.0800     217
152.1000     235
152.1200     236
152.1400     228
152.1600     208
152.1800     189
152.2000     192
152.2200     202
152.2400     205
152.2600     204
152.2800     197
152.3000     191
152.3200     206
152.3400     231
152.3600     258
152.3800     275
152.4000     240
152.4200     195
152.4400     200
152.4600     220
152.4800     210
152.5000     196
152.5200     222
152.5400     257
152.5600     257
152.5800     246
152.6000     250
152.6200     256
152.6400     244
152.6600     228
152.6800     230
152.7000     237
152.7200     227
152.7400     209
152.7600     180
152.7800     156
152.8000     183
152.8200     227
152.8400     250
152.8600     256
152.8800     227
152.9000     197
152.9200     240
152.9400     296
152.9600     267
152.9800     215
153.0000     213
153.0200     229
153.0400     235
153.0600     234
153.0800     220
153.1000     201
153.1200     190
153.1400     179
153.1600     148
153.1800     123
153.2000     163
153.2200     218
153.2400     218
153.2600     201
153.2800     211
153.3000     228
153.3200     230
153.3400     226
153.3600     225
153.3800     228
153.4000     241
153.4200     254
153.4400     244
153.4600     229
153.4800     242
153.5000     259
153.5200     238
153.5400     204
153.5600     178
153.5800     167
153.6000     208
153.6200     260
153.6400     262
153.6600     241
153.6800     206
153.7000     177
153.7200     198
153.7400     232
153.7600     223
153.7800     205
153.8000     230
153.8200     261
153.8400     234
153.8600     190
153.8800     179
153.9000     179
153.9200     169
153.9400     159
153.9600     169
153.9800     189
154.0000     221
154.0200     251
154.0400     249
154.0600     234
154.0800     214
154.1000     192
154.1200     172
154.1400     157
154.1600     165
154.1800     181
154.2000     184
154.2200     184
154.2400     197
154.2600     208
154.2800     186
154.3000     157
154.3200     165
154.3400     180
154.3600     161
154.3800     140
154.4000     174
154.4200     220
154.4400     215
154.4600     196
154.4800     215
154.5000     243
154.5200     243
154.5400     231
154.5600     222
154.5800     216
154.6000     219
154.6200     221
154.6400     208
154.6600     187
154.6800     164
154.7000     144
154.7200     143
154.7400     150
154.7600     167
154.7800     190
154.8000     228
154.8200     261
154.8400     241
154.8600     211
154.8800     241
154.9000     284
154.9200     272
154.9400     240
154.9600     221
154.9800     210
155.0000     216
155.0200     226
155.0400     226
155.0600     222
155.0800     216
155.1000     207
155.1200     183
155.1400     159
155.1600     165
155.1800     180
155.2000     177
155.2200     171
155.2400     186
155.2600     210
155.2800     234
155.3000     257
155.3200     275
155.3400     286
155.3600     271
155.3800     251
155.4000     264
155.4200     283
155.4400     269
155.4600     243
155.4800     230
155.5000     224
155.5200     225
155.5400     229
155.5600     236
155.5800     237
155.6000     203
155.6200     163
155.6400     158
155.6600     159
155.6800     117
155.7000      75
155.7200     121
155.7400     189
155.7600     185
155.7800     158
155.8000     153
155.8200     158
155.8400     170
155.8600     182
155.8800     184
155.9000     180
155.9200     169
155.9400     157
155.9600     153
155.9800     157
156.0000     178
156.0200     198
156.0400     181
156.0600     153
156.0800     140
156.1000     139
156.1200     163
156.1400     195
156.1600     217
156.1800     228
156.2000     206
156.2200     179
156.2400     199
156.2600     230
156.2800     229
156.3000     216
156.3200     205
156.3400     198
156.3600     211
156.3800     225
156.4000     212
156.4200     199
156.4400     236
156.4600     277
156.4800     235
156.5000     172
156.5200     177
156.5400     208
156.5600     229
156.5800     245
156.6000     251
156.6200     249
156.6400     225
156.6600     196
156.6800     182
156.7000     178
156.7200     189
156.7400     203
156.7600     199
156.7800     190
156.8000     194
156.8200     200
156.8400     184
156.8600     166
156.8800     178
156.9000     194
156.9200     169
156.9400     139
156.9600     172
156.9800     220
157.0000     218
157.0200     198
157.0400     185
157.0600     178
157.0800     187
157.1000     199
157.1200     188
157.1400     170
157.1600     164
157.1800     167
157.2000     195
157.2200     221
157.2400     190
157.2600     142
157.2800     124
157.3000     123
157.3200     144
157.3400     172
157.3600     190
157.3800     201
157.4000     198
157.4200     192
157.4400     195
157.4600     198
157.4800     186
157.5000     174
157.5200     192
157.5400     215
157.5600     203
157.5800     183
157.6000     193
157.6200     214
157.6400     231
157.6600     240
157.6800     211
157.7000     174
157.7200     172
157.7400     183
157.7600     192
157.7800     196
157.8000     177
157.8200     157
157.8400     177
157.8600     209
157.8800     221
157.9000     223
157.9200     215
157.9400     211
157.9600     245
157.9800     290
158.0000     308
158.0200     304
158.0400     235
158.0600     154
158.0800     140
158.1000     155
158.1200     185
158.1400     208
158.1600     166
158.1800     109
158.2000     107
158.2200     128
158.2400     154
158.2600     179
158.2800     192
158.3000     203
158.3200     226
158.3400     247
158.3600     231
158.3800     207
158.4000     215
158.4200     234
158.4400     246
158.4600     253
158.4800     245
158.5000     230
158.5200     210
158.5400     193
158.5600     203
158.5800     219
158.6000     215
158.6200     212
158.6400     256
158.6600     301
158.6800     261
158.7000     203
158.7200     226
158.7400     270
158.7600     251
158.7800     214
158.8000     214
158.8200     228
158.8400     242
158.8600     250
158.8800     229
158.9000     206
158.9200     225
158.9400     249
158.9600     216
158.9800     165
159.0000     139
159.0200     126
159.0400     127
159.0600     140
159.0800     193
159.1000     248
159.1200     236
159.1400     203
159.1600     193
159.1800     193
159.2000     192
159.2200     193
159.2400     214
159.2600     238
159.2800     242
159.3000     232
159.3200     192
159.3400     146
159.3600     130
159.3800     132
159.4000     162
159.4200     202
159.4400     230
159.4600     247
159.4800     229
159.5000     198
159.5200     167
159.5400     141
159.5600     133
159.5800     141
159.6000     186
159.6200     228
159.6400     183
159.6600     119
159.6800     130
159.7000     164
159.7200     155
159.7400     137
159.7600     159
159.7800     194
159.8000     214
159.8200     222
159.8400     205
159.8600     183
159.8800     189
159.9000     204
159.9200     202
159.9400     195
159.9600     190
159.9800     187
160.0000     187
160.0200     185
160.0400     160
160.0600     137
160.0800     169
160.1000     208
160.1200     175
160.1400     123
160.1600     123
160.1800     138
160.2000     128
160.2200     113
160.2400     121
160.2600     142
160.2800     180
160.3000     215
160.3200     208
160.3400     181
160.3600     139
160.3800     106
160.4000     143
160.4200     201
160.4400     216
160.4600     209
160.4800     178
160.5000     145
160.5200     147
160.5400     164
160.5600     186
160.5800     201
160.6000     171
160.6200     138
160.6400     177
160.6600     231
160.6800     218
160.7000     188
160.7200     203
160.7400     234
160.7600     247
160.7800     246
160.8000     215
160.8200     177
160.8400     167
160.8600     170
160.8800     175
160.9000     176
160.9200     157
160.9400     139
160.9600     169
160.9800     210
161.0000     204
161.0200     186
161.0400     193
161.0600     207
161.0800     201
161.1000     190
161.1200     196
161.1400     206
161.1600     206
161.1800     201
161.2000     191
161.2200     179
161.2400     169
161.2600     162
161.2800     173
161.3000     196
161.3200     242
161.3400     282
161.3600     237
161.3800     171
161.4000     165
161.4200     182
161.4400     192
161.4600     197
161.4800     184
161.5000     162
161.5200     130
161.5400      99
161.5600      95
161.5800     106
161.6000     147
161.6200     192
161.6400     200
161.6600     194
161.6800     186
161.7000     175
161.7200     149
161.7400     122
161.7600     117
161.7800     125
161.8000     153
161.8200     183
161.8400     186
161.8600     175
161.8800     146
161.9000     120
161.9200     144
161.9400     180
161.9600     178
161.9800     160
162.0000     147
162.0200     141
162.0400     165
162.0600     194
162.0800     191
162.1000     175
162.1200     156
162.1400     143
162.1600     168
162.1800     201
162.2000     198
162.2200     179
162.2400     160
162.2600     140
162.2800     122
162.3000     112
162.3200     143
162.3400     185
162.3600     194
162.3800     192
162.4000     203
162.4200     212
162.4400     181
162.4600     142
162.4800     138
162.5000     144
162.5200     132
162.5400     115
162.5600     116
162.5800     121
162.6000     111
162.6200     103
162.6400     135
162.6600     179
162.6800     203
162.7000     212
162.7200     183
162.7400     141
162.7600     112
162.7800      95
162.8000     108
162.8200     134
162.8400     160
162.8600     178
162.8800     156
162.9000     126
162.9200     134
162.9400     156
162.9600     168
162.9800     175
163.0000     174
163.0200     165
163.0400     134
163.0600     104
163.0800     124
163.1000     159
163.1200     166
163.1400     159
163.1600     135
163.1800     109
163.2000     105
163.2200     105
163.2400      83
163.2600      62
163.2800      84
163.3000     120
163.3200     136
163.3400     144
163.3600     147
163.3800     147
163.4000     135
163.4200     119
163.4400     103
163.4600      93
163.4800     110
163.5000     139
163.5200     173
163.5400     201
163.5600     189
163.5800     163
163.6000     145
163.6200     140
163.6400     182
163.6600     231
163.6800     225
163.7000     196
163.7200     165
163.7400     136
163.7600     117
163.7800     108
163.8000     121
163.8200     143
163.8400     166
163.8600     185
163.8800     174
163.9000     157
163.9200     163
163.9400     178
163.9600     183
163.9800     184
164.0000     180
164.0200     178
164.0400     193
164.0600     209
164.0800     200
164.1000     177
164.1200     137
164.1400     100
164.1600     106
164.1800     129
164.2000     146
164.2200     157
164.2400     154
164.2600     148
164.2800     149
164.3000     157
164.3200     188
164.3400     222
164.3600     226
164.3800     215
164.4000     186
164.4200     150
164.4400     112
164.4600      83
164.4800      96
164.5000     120
164.5200     119
164.5400     108
164.5600     102
164.5800     100
164.6000     108
164.6200     114
164.6400      93
164.6600      71
164.6800      99
164.7000     143
164.7200     167
164.7400     177
164.7600     154
164.7800     125
164.8000     133
164.8200     154
164.8400     173
164.8600     184
164.8800     158
164.9000     126
164.9200     129
164.9400     141
164.9600     125
164.9800     103
165.0000     113
165.0200     138
165.0400     181
165.0600     221
165.0800     211
165.1000     184
165.1200     172
165.1400     161
165.1600     122
165.1800      87
165.2000     132
165.2200     191
165.2400     163
165.2600     111
165.2800     106
165.3000     119
165.3200     130
165.3400     140
165.3600     148
165.3800     148
165.4000     107
165.4200      62
165.4400      85
165.4600     128
165.4800     136
165.5000     131
165.5200     129
165.5400     126
165.5600     105
165.5800      80
165.6000      72
165.6200      74
165.6400      97
165.6600     130
165.6800     165
165.7000     188
165.7200     148
165.7400      88
165.7600      63
165.7800      56
165.8000      74
165.8200      98
165.8400     105
165.8600     113
165.8800     158
165.9000     202
165.9200     169
165.9400     112
165.9600      87
165.9800      86
166.0000     140
166.0200     204
166.0400     210
166.0600     191
166.0800     167
166.1000     145
166.1200     144
166.1400     150
166.1600     143
166.1800     130
166.2000     115
166.2200      98
166.2400      76
166.2600      58
166.2800      70
166.3000      92
166.3200     101
166.3400     103
166.3600      97
166.3800      92
166.4000     117
166.4200     145
166.4400     133
166.4600     110
166.4800     114
166.5000     124
166.5200     119
166.5400     110
166.5600     116
166.5800     124
166.6000     112
166.6200      94
166.6400      88
166.6600      84
166.6800      71
166.7000      67
166.7200     120
166.7400     183
166.7600     181
166.7800     149
166.8000     100
166.8200      53
166.8400      48
166.8600      60
166.8800      74
166.9000      88
166.9200     102
166.9400     111
166.9600      96
166.9800      79