File: XRD_Tool/log/LDA_sample_name_56789_Psi-0_20180623-130904.txt
138.0000     131
138.0200      84
138.0400      80
138.0600      92
138.0800      89
138.1000      80
138.1200      63
138.1400      45
138.1600      42
138.1800      49
138.2000      83
138.2200     115
138.2400      88
138.2600      45
138.2800      37
138.3000      48
138.3200      84
138.3400     122
138.3600     119
138.3800     100
138.4000      87
138.4200      80
138.4400      85
138.4600      90
138.4800      68
138.5000      42
138.5200      44
138.5400      57
138.5600      64
138.5800      67
138.6000      70
138.6200      73
138.6400      79
138.6600      87
138.6800      93
138.7000      96
138.7200      83
138.7400      66
138.7600      65
138.7800      69
138.8000      58
138.8200      47
138.8400      61
138.8600      82
138.8800      88
138.9000      88
138.9200      90
138.9400      93
138.9600      99
138.9800     105
139.0000     103
139.0200      94
139.0400      73
139.0600      54
139.0800      70
139.1000      98
139.1200     116
139.1400     124
139.1600     101
139.1800      70
139.2000      69
139.2200      79
139.2400      91
139.2600      99
139.2800      88
139.3000      70
139.3200      52
139.3400      40
139.3600      57
139.3800      81
139.4000      90
139.4200      90
139.4400      80
139.4600      70
139.4800      82
139.5000      97
139.5200      88
139.5400      73
139.5600      68
139.5800      68
139.6000      68
139.6200      71
139.6400      86
139.6600     105
139.6800     120
139.7000     130
139.7200     120
139.7400     103
139.7600      91
139.7800      88
139.8000     117
139.8200     147
139.8400     120
139.8600      79
139.8800      82
139.9000     100
139.9200     111
139.9400     119
139.9600     124
139.9800     126
140.0000     119
140.0200     108
140.0400      87
140.0600      71
140.0800      92
140.1000     122
140.1200     123
140.1400     112
140.1600      95
140.1800      80
140.2000      93
140.2200     111
140.2400      96
140.2600      71
140.2800      66
140.3000      67
140.3200      66
140.3400      66
140.3600      71
140.3800      75
140.4000      59
140.4200      40
140.4400      46
140.4600      64
140.4800      89
140.5000     111
140.5200     104
140.5400      89
140.5600      84
140.5800      82
140.6000      68
140.6200      57
140.6400      80
140.6600     107
140.6800      90
140.7000      70
140.7200     115
140.7400     176
140.7600     184
140.7800     169
140.8000     149
140.8200     129
140.8400     117
140.8600     108
140.8800      92
140.9000      79
140.9200      90
140.9400     104
140.9600      93
140.9800      78
141.0000     101
141.0200     128
141.0400      99
141.0600      54
141.0800      47
141.1000      56
141.1200      68
141.1400      78
141.1600      65
141.1800      51
141.2000      75
141.2200     109
141.2400     113
141.2600     103
141.2800      85
141.3000      67
141.3200      67
141.3400      77
141.3600      99
141.3800     119
141.4000     109
141.4200      96
141.4400     130
141.4600     169
141.4800     146
141.5000     105
141.5200      99
141.5400     109
141.5600     131
141.5800     150
141.6000     134
141.6200     109
141.6400     107
141.6600     116
141.6800     127
141.7000     135
141.7200     124
141.7400     108
141.7600      97
141.7800      91
141.8000      97
141.8200     107
141.8400     119
141.8600     126
141.8800     113
141.9000      92
141.9200      78
141.9400      70
141.9600      82
141.9800     101
142.0000     120
142.0200     138
142.0400     158
142.0600     170
142.0800     145
142.1000     109
142.1200      93
142.1400      89
142.1600     103
142.1800     122
142.2000     125
142.2200     118
142.2400      97
142.2600      76
142.2800      75
142.3000      82
142.3200      86
142.3400      94
142.3600     130
142.3800     172
142.4000     184
142.4200     178
142.4400     142
142.4600     107
142.4800     135
142.5000     177
142.5200     156
142.5400     117
142.5600     111
142.5800     118
142.6000     117
142.6200     116
142.6400     131
142.6600     151
142.6800     156
142.7000     155
142.7200     151
142.7400     147
142.7600     155
142.7800     162
142.8000     147
142.8200     127
142.8400     127
142.8600     131
142.8800     113
142.9000      94
142.9200     110
142.9400     131
142.9600     106
142.9800      70
143.0000      79
143.0200     107
143.0400     143
143.0600     174
143.0800     160
143.1000     128
143.1200      94
143.1400      72
143.1600     105
143.1800     155
143.2000     173
143.2200     176
143.2400     159
143.2600     143
143.2800     164
143.3000     188
143.3200     155
143.3400     110
143.3600     117
143.3800     138
143.4000     129
143.4200     107
143.4400      85
143.4600      67
143.4800      72
143.5000      87
143.5200     104
143.5400     118
143.5600     114
143.5800     106
143.6000     121
143.6200     140
143.6400     134
143.6600     118
143.6800     104
143.7000      91
143.7200      86
143.7400      84
143.7600      81
143.7800      79
143.8000      88
143.8200      99
143.8400      94
143.8600      85
143.8800      91
143.9000      99
143.9200      90
143.9400      83
143.9600     118
143.9800     159
144.0000     146
144.0200     121
144.0400     138
144.0600     162
144.0800     134
144.1000      94
144.1200      91
144.1400     102
144.1600     113
144.1800     124
144.2000     138
144.2200     141
144.2400      79
144.2600      11
144.2800      40
144.3000      99
144.3200     113
144.3400     111
144.3600     119
144.3800     123
144.4000      92
144.4200      54
144.4400      58
144.4600      77
144.4800      92
144.5000     104
144.5200     105
144.5400     103
144.5600     111
144.5800     119
144.6000     110
144.6200      96
144.6400      89
144.6600      86
144.6800      89
144.7000      94
144.7200      93
144.7400      90
144.7600      92
144.7800      96
144.8000     101
144.8200     106
144.8400     106
144.8600     105
144.8800     108
144.9000     112
144.9200     121
144.9400     127
144.9600     116
144.9800     103
145.0000     115
145.0200     131
145.0400     114
145.0600      89
145.0800      87
145.1000      94
145.1200      93
145.1400      89
145.1600      86
145.1800      85
145.2000      86
145.2200      87
145.2400      81
145.2600      78
145.2800      98
145.3000     122
145.3200     115
145.3400     100
145.3600     110
145.3800     124
145.4000     108
145.4200      87
145.4400     102
145.4600     128
145.4800     133
145.5000     124
145.5200      93
145.5400      63
145.5600      85
145.5800     118
145.6000     108
145.6200      91
145.6400     130
145.6600     176
145.6800     141
145.7000      84
145.7200      87
145.7400     108
145.7600     104
145.7800      90
145.8000      78
145.8200      67
145.8400      62
145.8600      59
145.8800      50
145.9000      40
145.9200      43
145.9400      51
145.9600      59
145.9800      66
146.0000      66
146.0200      66
146.0400      76
146.0600      89
146.0800      97
146.1000     102
146.1200      97
146.1400      87
146.1600      69
146.1800      51
146.2000      53
146.2200      65
146.2400      89
146.2600     111
146.2800     108
146.3000      93
146.3200      71
146.3400      49
146.3600      39
146.3800      36
146.4000      50
146.4200      69
146.4400      86
146.4600      98
146.4800      92
146.5000      77
146.5200      59
146.5400      46
146.5600      71
146.5800     104
146.6000      99
146.6200      77
146.6400      46
146.6600      21
146.6800      40
146.7000      76
146.7200     117
146.7400     148
146.7600     122
146.7800      80
146.8000      65
146.8200      61
146.8400      62
146.8600      66
146.8800      78
146.9000      91
146.9200      89
146.9400      82
146.9600      80
146.9800      81
147.0000      87
147.0200      97
147.0400     117
147.0600     134
147.0800     118
147.1000      91
147.1200      82
147.1400      82
147.1600      89
147.1800      96
147.2000      88
147.2200      78
147.2400      86
147.2600      99
147.2800      95
147.3000      88
147.3200      96
147.3400     107
147.3600      98
147.3800      86
147.4000      94
147.4200     106
147.4400      96
147.4600      82
147.4800      83
147.5000      87
147.5200      68
147.5400      50
147.5600      83
147.5800     126
147.6000     113
147.6200      84
147.6400      90
147.6600     103
147.6800      82
147.7000      56
147.7200      65
147.7400      88
147.7600     104
147.7800     114
147.8000     101
147.8200      83
147.8400      83
147.8600      86
147.8800      64
147.9000      39
147.9200      47
147.9400      71
147.9600     104
147.9800     134
148.0000     134
148.0200     118
148.0400      83
148.0600      49
148.0800      50
148.1000      68
148.1200      98
148.1400     122
148.1600      94
148.1800      56
148.2000      66
148.2200      91
148.2400      86
148.2600      74
148.2800      82
148.3000      92
148.3200      74
148.3400      51
148.3600      66
148.3800      91
148.4000      88
148.4200      75
148.4400      70
148.4600      72
148.4800      94
148.5000     119
148.5200     116
148.5400      99
148.5600      70
148.5800      47
148.6000      74
148.6200     114
148.6400     111
148.6600      93
148.6800      86
148.7000      88
148.7200     109
148.7400     126
148.7600      91
148.7800      48
148.8000      67
148.8200     103
148.8400     100
148.8600      85
148.8800      82
148.9000      82
148.9200      72
148.9400      62
148.9600      74
148.9800      88
149.0000      77
149.0200      58
149.0400      52
149.0600      56
149.0800      80
149.1000     109
149.1200     120
149.1400     123
149.1600     126
149.1800     124
149.2000     104
149.2200      83
149.2400     102
149.2600     126
149.2800      98
149.3000      61
149.3200      77
149.3400     109
149.3600     110
149.3800      97
149.4000      84
149.4200      72
149.4400      68
149.4600      70
149.4800      79
149.5000      86
149.5200      69
149.5400      50
149.5600      66
149.5800      92
149.6000      98
149.6200      98
149.6400     103
149.6600     109
149.6800     102
149.7000      89
149.7200      76
149.7400      66
149.7600      76
149.7800      93
149.8000     108
149.8200     117
149.8400      98
149.8600      73
149.8800      76
149.9000      91
149.9200     110
149.9400     125
149.9600     116
149.9800      97
150.0000      73
150.0200      56
150.0400      84
150.0600     123
150.0800     122
150.1000     106
150.1200      87
150.1400      70
150.1600      73
150.1800      79
150.2000      67
150.2200      51
150.2400      58
150.2600      72
150.2800      74
150.3000      75
150.3200      90
150.3400     108
150.3600     121
150.3800     127
150.4000     113
150.4200      96
150.4400     102
150.4600     114
150.4800     106
150.5000      93
150.5200      92
150.5400     100
150.5600     129
150.5800     159
150.6000     144
150.6200     111
150.6400      70
150.6600      33
150.6800      32
150.7000      50
150.7200      83
150.7400     114
150.7600     100
150.7800      72
150.8000      66
150.8200      68
150.8400      70
150.8600      71
150.8800      69
150.9000      67
150.9200      78
150.9400      89
150.9600      73
150.9800      54
151.0000      70
151.0200      92
151.0400      74
151.0600      46
151.0800      45
151.1000      57
151.1200      77
151.1400      97
151.1600      95
151.1800      88
151.2000      91
151.2200      96
151.2400      84
151.2600      70
151.2800      75
151.3000      87
151.3200     102
151.3400     117
151.3600     124
151.3800     123
151.4000     100
151.4200      74
151.4400      78
151.4600      89
151.4800      72
151.5000      50
151.5200      59
151.5400      79
151.5600      84
151.5800      86
151.6000      98
151.6200     111
151.6400     107
151.6600      99
151.6800      98
151.7000      98
151.7200      88
151.7400      79
151.7600      97
151.7800     119
151.8000     114
151.8200      98
151.8400      80
151.8600      67
151.8800      74
151.9000      91
151.9200     111
151.9400     128
151.9600     115
151.9800      95
152.0000      95
152.0200     104
152.0400     115
152.0600     124
152.0800     119
152.1000     112
152.1200     119
152.1400     126
152.1600     108
152.1800      85
152.2000      87
152.2200      98
152.2400     107
152.2600     110
152.2800      86
152.3000      56
152.3200      45
152.3400      44
152.3600      63
152.3800      88
152.4000     110
152.4200     124
152.4400     113
152.4600      93
152.4800      83
152.5000      73
152.5200      45
152.5400      17
152.5600      32
152.5800      59
152.6000      61
152.6200      54
152.6400      50
152.6600      51
152.6800      62
152.7000      71
152.7200      45
152.7400      15
152.7600      35
152.7800      68
152.8000      63
152.8200      47
152.8400      52
152.8600      67
152.8800      86
152.9000     100
152.9200      89
152.9400      72
152.9600      80
152.9800      95
153.0000      97
153.0200      94
153.0400      99
153.0600     105
153.0800      99
153.1000      94
153.1200     111
153.1400     132
153.1600     126
153.1800     109
153.2000      84
153.2200      61
153.2400      66
153.2600      80
153.2800      81
153.3000      78
153.3200      83
153.3400      89
153.3600      85
153.3800      76
153.4000      64
153.4200      52
153.4400      52
153.4600      60
153.4800      88
153.5000     116
153.5200     107
153.5400      88
153.5600      96
153.5800     107
153.6000      85
153.6200      51
153.6400      30
153.6600      15
153.6800       3
153.7000       1
153.7200      34
153.7400      75
153.7600      78
153.7800      73
153.8000     103
153.8200     138
153.8400     128
153.8600     103
153.8800      93
153.9000      88
153.9200      79
153.9400      75
153.9600      96
153.9800     119
154.0000      97
154.0200      63
154.0400      59
154.0600      66
154.0800      68
154.1000      71
154.1200      91
154.1400     112
154.1600     108
154.1800      95
154.2000      89
154.2200      83
154.2400      72
154.2600      63
154.2800      77
154.3000      95
154.3200      85
154.3400      65
154.3600      55
154.3800      55
154.4000      85
154.4200     118
154.4400     104
154.4600      74
154.4800      51
154.5000      32
154.5200      21
154.5400      14
154.5600      12
154.5800      19
154.6000      61
154.6200     106
154.6400      96
154.6600      67
154.6800      51
154.7000      43
154.7200      42
154.7400      44
154.7600      46
154.7800      48
154.8000      52
154.8200      56
154.8400      65
154.8600      72
154.8800      66
154.9000      55
154.9200      54
154.9400      59
154.9600      82
154.9800     108
155.0000     111
155.0200     106
155.0400     106
155.0600     103
155.0800      75
155.1000      45
155.1200      53
155.1400      72
155.1600      66
155.1800      53
155.2000      52
155.2200      57
155.2400      72
155.2600      85
155.2800      76
155.3000      61
155.3200      58
155.3400      63
155.3600      85
155.3800     106
155.4000      93
155.4200      70
155.4400      62
155.4600      60
155.4800      55
155.5000      50
155.5200      52
155.5400      57
155.5600      70
155.5800      84
155.6000      85
155.6200      80
155.6400      73
155.6600      70
155.6800      92
155.7000     115
155.7200      93
155.7400      59
155.7600      52
155.7800      56
155.8000      63
155.8200      68
155.8400      58
155.8600      46
155.8800      56
155.9000      70
155.9200      64
155.9400      53
155.9600      57
155.9800      65
156.0000      61
156.0200      55
156.0400      57
156.0600      61
156.0800      55
156.1000      50
156.1200      67
156.1400      87
156.1600      80
156.1800      68
156.2000      83
156.2200     101
156.2400      81
156.2600      49
156.2800      42
156.3000      47
156.3200      70
156.3400      92
156.3600      74
156.3800      45
156.4000      40
156.4200      47
156.4400      70
156.4600      96
156.4800      99
156.5000      91
156.5200      73
156.5400      54
156.5600      48
156.5800      51
156.6000      67
156.6200      85
156.6400      78
156.6600      65
156.6800      67
156.7000      75
156.7200      83
156.7400      87
156.7600      68
156.7800      43
156.8000      33
156.8200      32
156.8400      47
156.8600      64
156.8800      55
156.9000      41
156.9200      57
156.9400      78
156.9600      67
156.9800      47
157.0000      44
157.0200      50
157.0400      67
157.0600      87
157.0800      92
157.1000      92
157.1200      90
157.1400      86
157.1600      71
157.1800      57
157.2000      76
157.2200     101
157.2400      93
157.2600      74
157.2800      73
157.3000      77
157.3200      70
157.3400      61
157.3600      67
157.3800      79
157.4000      92
157.4200      98
157.4400      59
157.4600      14
157.4800      24
157.5000      52
157.5200      58
157.5400      61
157.5600      88
157.5800     118
157.6000     119
157.6200     108
157.6400      87
157.6600      64
157.6800      48
157.7000      35
157.7200      25
157.7400      20
157.7600      27
157.7800      41
157.8000      65
157.8200      87
157.8400      82
157.8600      67
157.8800      55
157.9000      49
157.9200      58
157.9400      74
157.9600      87
157.9800      98
158.0000     109
158.0200     110
158.0400      66
158.0600      15
158.0800      22
158.1000      48
158.1200      51
158.1400      49
158.1600      70
158.1800      94
158.2000      83
158.2200      63
158.2400      63
158.2600      69
158.2800      62
158.3000      53
158.3200      60
158.3400      71
158.3600      66
158.3800      57
158.4000      66
158.4200      78
158.4400      70
158.4600      57
158.4800      56
158.5000      57
158.5200      48
158.5400      35
158.5600      30
158.5800      31
158.6000      44
158.6200      60
158.6400      66
158.6600      67
158.6800      61
158.7000      54
158.7200      49
158.7400      46
158.7600      49
158.7800      53
158.8000      44
158.8200      35
158.8400      49
158.8600      72
158.8800      87
158.9000      96
158.9200      93
158.9400      83
158.9600      60
158.9800      40
159.0000      63
159.0200      93
159.0400      71
159.0600      34
159.0800      22
159.1000      21
159.1200      25
159.1400      33
159.1600      48
159.1800      61
159.2000      49
159.2200      31
159.2400      33
159.2600      39
159.2800      27
159.3000      13
159.3200      29
159.3400      54
159.3600      67
159.3800      73
159.4000      69
159.4200      61
159.4400      50
159.4600      42
159.4800      59
159.5000      80
159.5200      74
159.5400      65
159.5600      88
159.5800     118
159.6000     121
159.6200     111
159.6400      93
159.6600      74
159.6800      72
159.7000      78
159.7200      94
159.7400     106
159.7600      83
159.7800      47
159.8000      24
159.8200      11
159.8400      18
159.8600      31
159.8800      29
159.9000      24
159.9200      32
159.9400      42
159.9600      32
159.9800      20
160.0000      38
160.0200      65
160.0400      72
160.0600      73
160.0800      81
160.1000      90
160.1200      92
160.1400      92
160.1600      90
160.1800      91
160.2000     106
160.2200     116
160.2400      77
160.2600      29
160.2800      28
160.3000      45
160.3200      60
160.3400      70
160.3600      60
160.3800      49
160.4000      68
160.4200      93
160.4400      85
160.4600      63
160.4800      43
160.5000      27
160.5200      31
160.5400      44
160.5600      67
160.5800      86
160.6000      73
160.6200      49
160.6400      34
160.6600      27
160.6800      50
160.7000      74
160.7200      51
160.7400      15
160.7600       8
160.7800      12
160.8000      17
160.8200      25
160.8400      42
160.8600      58
160.8800      54
160.9000      47
160.9200      65
160.9400      88
160.9600      86
160.9800      70
161.0000      34
161.0200       0
161.0400      14
161.0600      43
161.0800      45
161.1000      43
161.1200      69
161.1400      96
161.1600      63
161.1800      17
161.2000      21
161.2200      41
161.2400      38
161.2600      27
161.2800      22
161.3000      25
161.3200      48
161.3400      73
161.3600      63
161.3800      44
161.4000      52
161.4200      66
161.4400      60
161.4600      47
161.4800      42
161.5000      38
161.5200      19
161.5400       1
161.5600      11
161.5800      33
161.6000      54
161.6200      70
161.6400      67
161.6600      59
161.6800      58
161.7000      61
161.7200      67
161.7400      74
161.7600      78
161.7800      77
161.8000      61
161.8200      41
161.8400      29
161.8600      22
161.8800      20
161.9000      20
161.9200      18
161.9400      22
161.9600      53
161.9800      83