File: XRD_Tool/log/LDA_sample_name_56789_Psi-0_20180623-131511.txt
138.0000     250
138.0200     277
138.0400     276
138.0600     266
138.0800     269
138.1000     277
138.1200     283
138.1400     289
138.1600     290
138.1800     293
138.2000     313
138.2200     329
138.2400     295
138.2600     251
138.2800     255
138.3000     274
138.3200     268
138.3400     255
138.3600     259
138.3800     270
138.4000     289
138.4200     308
138.4400     309
138.4600     307
138.4800     323
138.5000     341
138.5200     326
138.5400     299
138.5600     277
138.5800     260
138.6000     263
138.6200     278
138.6400     321
138.6600     364
138.6800     351
138.7000     316
138.7200     289
138.7400     270
138.7600     276
138.7800     289
138.8000     289
138.8200     284
138.8400     287
138.8600     295
138.8800     313
138.9000     337
138.9200     368
138.9400     398
138.9600     408
138.9800     403
139.0000     366
139.0200     321
139.0400     301
139.0600     296
139.0800     311
139.1000     336
139.1200     363
139.1400     385
139.1600     382
139.1800     370
139.2000     366
139.2200     361
139.2400     333
139.2600     304
139.2800     322
139.3000     351
139.3200     350
139.3400     339
139.3600     343
139.3800     355
139.4000     379
139.4200     402
139.4400     401
139.4600     389
139.4800     362
139.5000     336
139.5200     337
139.5400     346
139.5600     343
139.5800     340
139.6000     364
139.6200     392
139.6400     393
139.6600     387
139.6800     396
139.7000     410
139.7200     416
139.7400     416
139.7600     409
139.7800     403
139.8000     412
139.8200     427
139.8400     437
139.8600     446
139.8800     462
139.9000     469
139.9200     424
139.9400     371
139.9600     380
139.9800     421
140.0000     495
140.0200     567
140.0400     557
140.0600     523
140.0800     524
140.1000     537
140.1200     535
140.1400     522
140.1600     481
140.1800     440
140.2000     457
140.2200     492
140.2400     499
140.2600     492
140.2800     475
140.3000     460
140.3200     482
140.3400     512
140.3600     515
140.3800     516
140.4000     562
140.4200     622
140.4400     659
140.4600     671
140.4800     603
140.5000     521
140.5200     529
140.5400     567
140.5600     580
140.5800     584
140.6000     598
140.6200     618
140.6400     648
140.6600     671
140.6800     641
140.7000     612
140.7200     701
140.7400     807
140.7600     760
140.7800     670
140.8000     671
140.8200     704
140.8400     711
140.8600     706
140.8800     699
140.9000     700
140.9200     744
140.9400     798
140.9600     807
140.9800     797
141.0000     774
141.0200     746
141.0400     719
141.0600     698
141.0800     697
141.1000     719
141.1200     808
141.1400     907
141.1600     921
141.1800     914
141.2000     975
141.2200    1039
141.2400     981
141.2600     895
141.2800     906
141.3000     950
141.3200     966
141.3400     973
141.3600     996
141.3800    1023
141.4000    1035
141.4200    1038
141.4400    1025
141.4600    1021
141.4800    1102
141.5000    1203
141.5200    1239
141.5400    1237
141.5600    1177
141.5800    1113
141.6000    1150
141.6200    1228
141.6400    1303
141.6600    1366
141.6800    1374
141.7000    1375
141.7200    1453
141.7400    1535
141.7600    1490
141.7800    1413
141.8000    1431
141.8200    1490
141.8400    1564
141.8600    1626
141.8800    1598
141.9000    1554
141.9200    1608
141.9400    1697
141.9600    1761
141.9800    1814
142.0000    1857
142.0200    1907
142.0400    2009
142.0600    2107
142.0800    2085
142.1000    2026
142.1200    2020
142.1400    2030
142.1600    2012
142.1800    1988
142.2000    1996
142.2200    2025
142.2400    2099
142.2600    2202
142.2800    2365
142.3000    2524
142.3200    2548
142.3400    2526
142.3600    2544
142.3800    2589
142.4000    2687
142.4200    2774
142.4400    2694
142.4600    2581
142.4800    2632
142.5000    2737
142.5200    2792
142.5400    2830
142.5600    2886
142.5800    2933
142.6000    2897
142.6200    2836
142.6400    2823
142.6600    2832
142.6800    2851
142.7000    2865
142.7200    2827
142.7400    2772
142.7600    2732
142.7800    2714
142.8000    2773
142.8200    2838
142.8400    2778
142.8600    2670
142.8800    2572
142.9000    2505
142.9200    2571
142.9400    2681
142.9600    2743
142.9800    2782
143.0000    2808
143.0200    2799
143.0400    2646
143.0600    2476
143.0800    2501
143.1000    2572
143.1200    2480
143.1400    2355
143.1600    2395
143.1800    2482
143.2000    2476
143.2200    2440
143.2400    2445
143.2600    2443
143.2800    2318
143.3000    2178
143.3200    2210
143.3400    2289
143.3600    2266
143.3800    2204
143.4000    2149
143.4200    2095
143.4400    2036
143.4600    1985
143.4800    1992
143.5000    2024
143.5200    2063
143.5400    2086
143.5600    2014
143.5800    1912
143.6000    1852
143.6200    1810
143.6400    1778
143.6600    1754
143.6800    1755
143.7000    1767
143.7200    1789
143.7400    1809
143.7600    1799
143.7800    1776
143.8000    1751
143.8200    1711
143.8400    1596
143.8600    1466
143.8800    1404
143.9000    1376
143.9200    1377
143.9400    1386
143.9600    1383
143.9800    1374
144.0000    1362
144.0200    1352
144.0400    1362
144.0600    1374
144.0800    1358
144.1000    1328
144.1200    1288
144.1400    1253
144.1600    1263
144.1800    1284
144.2000    1273
144.2200    1244
144.2400    1190
144.2600    1140
144.2800    1157
144.3000    1185
144.3200    1136
144.3400    1063
144.3600    1023
144.3800    1005
144.4000    1026
144.4200    1050
144.4400    1017
144.4600     963
144.4800     916
144.5000     874
144.5200     843
144.5400     827
144.5600     861
144.5800     911
144.6000     941
144.6200     956
144.6400     933
144.6600     885
144.6800     789
144.7000     693
144.7200     698
144.7400     737
144.7600     736
144.7800     721
144.8000     709
144.8200     707
144.8400     744
144.8600     776
144.8800     711
144.9000     619
144.9200     584
144.9400     570
144.9600     547
144.9800     530
145.0000     557
145.0200     591
145.0400     575
145.0600     542
145.0800     525
145.1000     513
145.1200     488
145.1400     461
145.1600     452
145.1800     458
145.2000     501
145.2200     539
145.2400     475
145.2600     394
145.2800     425
145.3000     491
145.3200     507
145.3400     494
145.3600     441
145.3800     383
145.4000     388
145.4200     410
145.4400     387
145.4600     351
145.4800     333
145.5000     327
145.5200     338
145.5400     351
145.5600     339
145.5800     320
145.6000     319
145.6200     322
145.6400     307
145.6600     285
145.6800     265
145.7000     249
145.7200     253
145.7400     263
145.7600     264
145.7800     266
145.8000     288
145.8200     310
145.8400     291
145.8600     257
145.8800     236
145.9000     223
145.9200     222
145.9400     225
145.9600     228
145.9800     229
146.0000     227
146.0200     222
146.0400     217
146.0600     214
146.0800     229
146.1000     246
146.1200     233
146.1400     213
146.1600     210
146.1800     216
146.2000     233
146.2200     248
146.2400     223
146.2600     190
146.2800     189
146.3000     195
146.3200     174
146.3400     151
146.3600     175
146.3800     204
146.4000     171
146.4200     125
146.4400     139
146.4600     172
146.4800     177
146.5000     168
146.5200     147
146.5400     124
146.5600     111
146.5800     105
146.6000     107
146.6200     114
146.6400     125
146.6600     138
146.6800     157
146.7000     176
146.7200     179
146.7400     176
146.7600     179
146.7800     181
146.8000     160
146.8200     134
146.8400     130
146.8600     133
146.8800     131
146.9000     128
146.9200     131
146.9400     137
146.9600     138
146.9800     143
147.0000     173
147.0200     205
147.0400     195
147.0600     173
147.0800     170
147.1000     172
147.1200     167
147.1400     160
147.1600     155
147.1800     149
147.2000     138
147.2200     124
147.2400     113
147.2600     106
147.2800     114
147.3000     128
147.3200     142
147.3400     155
147.3600     163
147.3800     170
147.4000     181
147.4200     189
147.4400     182
147.4600     173
147.4800     187
147.5000     202
147.5200     174
147.5400     138
147.5600     154
147.5800     180
147.6000     157
147.6200     121
147.6400     115
147.6600     121
147.6800     126
147.7000     128
147.7200     125
147.7400     122
147.7600     132
147.7800     145
147.8000     143
147.8200     134
147.8400     118
147.8600     105
147.8800     117
147.9000     136
147.9200     140
147.9400     140
147.9600     145
147.9800     150
148.0000     137
148.0200     123
148.0400     144
148.0600     171
148.0800     163
148.1000     147
148.1200     159
148.1400     176
148.1600     156
148.1800     128
148.2000     130
148.2200     141
148.2400     137
148.2600     127
148.2800     117
148.3000     112
148.3200     131
148.3400     154
148.3600     155
148.3800     146
148.4000     132
148.4200     119
148.4400     118
148.4600     124
148.4800     140
148.5000     153
148.5200     132
148.5400     106
148.5600     117
148.5800     134
148.6000     109
148.6200      78
148.6400      97
148.6600     131
148.6800     137
148.7000     132
148.7200     132
148.7400     134
148.7600     139
148.7800     145
148.8000     146
148.8200     142
148.8400     116
148.8600      91
148.8800     106
148.9000     130
148.9200     116
148.9400      94
148.9600     110
148.9800     136
149.0000     132
149.0200     118
149.0400     111
149.0600     106
149.0800      97
149.1000      93
149.1200     114
149.1400     140
149.1600     136
149.1800     122
149.2000     118
149.2200     119
149.2400     125
149.2600     129
149.2800     113
149.3000      91
149.3200      79
149.3400      70
149.3600      56
149.3800      49
149.4000      85
149.4200     132
149.4400     139
149.4600     130
149.4800     118
149.5000     111
149.5200     137
149.5400     170
149.5600     168
149.5800     153
149.6000     145
149.6200     137
149.6400     121
149.6600     101
149.6800      84
149.7000      72
149.7200      80
149.7400      95
149.7600     102
149.7800     106
149.8000     111
149.8200     115
149.8400     104
149.8600      91
149.8800      93
149.9000      95
149.9200      64
149.9400      32
149.9600      63
149.9800     115
150.0000     145
150.0200     160
150.0400     140
150.0600     111
150.0800     107
150.1000     112
150.1200     111
150.1400     111
150.1600     131
150.1800     151
150.2000     132
150.2200     101
150.2400      85
150.2600      82
150.2800     109
150.3000     143
150.3200     144
150.3400     131
150.3600     116
150.3800     100
150.4000      82
150.4200      71
150.4400      90
150.4600     122
150.4800     151
150.5000     171
150.5200     154
150.5400     129
150.5600     139
150.5800     159
150.6000     159
150.6200     148
150.6400     120
150.6600      93
150.6800     101
150.7000     120
150.7200     123
150.7400     120
150.7600     125
150.7800     132
150.8000     132
150.8200     128
150.8400     109
150.8600      90
150.8800      96
150.9000     111
150.9200     118
150.9400     120
150.9600     112
150.9800     101
151.0000      96
151.0200      94
151.0400      92
151.0600      96
151.0800     125
151.1000     156
151.1200     144
151.1400     117
151.1600     105
151.1800     101
151.2000     107
151.2200     117
151.2400     125
151.2600     131
151.2800     127
151.3000     123
151.3200     141
151.3400     158
151.3600     128
151.3800      87
151.4000      81
151.4200      87
151.4400      85
151.4600      81
151.4800      87
151.5000      97
151.5200     109
151.5400     118
151.5600     112
151.5800     103
151.6000     114
151.6200     125
151.6400     103
151.6600      77
151.6800     102
151.7000     141
151.7200     140
151.7400     129
151.7600     145
151.7800     167
151.8000     171
151.8200     166
151.8400     156
151.8600     143
151.8800     128
151.9000     112
151.9200      98
151.9400      84
151.9600      73
151.9800      65
152.0000      62
152.0200      64
152.0400      74
152.0600      89
152.0800     109
152.1000     121
152.1200      82
152.1400      35
152.1600      54
152.1800      96
152.2000     113
152.2200     119
152.2400     115
152.2600     113
152.2800     141
152.3000     172
152.3200     155
152.3400     126
152.3600     133
152.3800     149
152.4000     130
152.4200     101
152.4400      85
152.4600      81
152.4800     104
152.5000     131
152.5200     123
152.5400     104
152.5600     100
152.5800     102
152.6000     107
152.6200     113
152.6400     119
152.6600     123
152.6800     112
152.7000      96
152.7200      78
152.7400      68
152.7600      98
152.7800     139
152.8000     150
152.8200     150
152.8400     152
152.8600     151
152.8800     135
152.9000     115
152.9200     107
152.9400     104
152.9600     111
152.9800     119
153.0000     117
153.0200     113
153.0400     119
153.0600     125
153.0800     114
153.1000     103
153.1200     124
153.1400     151
153.1600     143
153.1800     122
153.2000     109
153.2200     105
153.2400     126
153.2600     151
153.2800     139
153.3000     116
153.3200     103
153.3400      96
153.3600      94
153.3800      97
153.4000     117
153.4200     138
153.4400     136
153.4600     124
153.4800     115
153.5000     106
153.5200      92
153.5400      78
153.5600      74
153.5800      78
153.6000     100
153.6200     124
153.6400     118
153.6600     102
153.6800      91
153.7000      85
153.7200      89
153.7400     101
153.7600     133
153.7800     162
153.8000     134
153.8200      89
153.8400      68
153.8600      58
153.8800      61
153.9000      72
153.9200      96
153.9400     122
153.9600     125
153.9800     117
154.0000      97
154.0200      75
154.0400      63
154.0600      58
154.0800      65
154.1000      78
154.1200      96
154.1400     109
154.1600      92
154.1800      65
154.2000      56
154.2200      58
154.2400      79
154.2600     103
154.2800     108
154.3000     106
154.3200      99
154.3400      93
154.3600      95
154.3800     100
154.4000      97
154.4200      89
154.4400      74
154.4600      66
154.4800     103
154.5000     145
154.5200     114
154.5400      60
154.5600      41
154.5800      41
154.6000      71
154.6200     107
154.6400     116
154.6600     115
154.6800     116
154.7000     116
154.7200     106
154.7400      90
154.7600      64
154.7800      47
154.8000      97
154.8200     155
154.8400     128
154.8600      74
154.8800      62
154.9000      66
154.9200      75
154.9400      81
154.9600      70
154.9800      56
155.0000      62
155.0200      74
155.0400      73
155.0600      67
155.0800      61
155.1000      59
155.1200      75
155.1400      95
155.1600      93
155.1800      84
155.2000      75
155.2200      70
155.2400      82
155.2600      96
155.2800      92
155.3000      81
155.3200      76
155.3400      77
155.3600      90
155.3800     103
155.4000      91
155.4200      73
155.4400      78
155.4600      89
155.4800      85
155.5000      76
155.5200      67
155.5400      64
155.5600      88
155.5800     114
155.6000     102
155.6200      78
155.6400      77
155.6600      82
155.6800      74
155.7000      63
155.7200      70
155.7400      81
155.7600      72
155.7800      60
155.8000      65
155.8200      78
155.8400      97
155.8600     113
155.8800      96
155.9000      69
155.9200      57
155.9400      52
155.9600      52
155.9800      56
156.0000      72
156.0200      88
156.0400      84
156.0600      72
156.0800      65
156.1000      59
156.1200      56
156.1400      56
156.1600      61
156.1800      70
156.2000      86
156.2200      98
156.2400      80
156.2600      54
156.2800      51
156.3000      58
156.3200      69
156.3400      76
156.3600      58
156.3800      33
156.4000      23
156.4200      24
156.4400      51
156.4600      85
156.4800      94
156.5000      90
156.5200      66
156.5400      42
156.5600      58
156.5800      84
156.6000      80
156.6200      65
156.6400      52
156.6600      45
156.6800      64
156.7000      91
156.7200     102
156.7400     103
156.7600      89
156.7800      71
156.8000      63
156.8200      59
156.8400      56
156.8600      58
156.8800      77
156.9000     100
156.9200     108
156.9400     107
156.9600      89
156.9800      71
157.0000      80
157.0200      97
157.0400     100
157.0600     100
157.0800     107
157.1000     114
157.1200     106
157.1400      96
157.1600     106
157.1800     120
157.2000     116
157.2200     101
157.2400      76
157.2600      54
157.2800      70
157.3000      97
157.3200      97
157.3400      84
157.3600      56
157.3800      29
157.4000      32
157.4200      47
157.4400      55
157.4600      63
157.4800      80
157.5000      95
157.5200      88
157.5400      73
157.5600      63
157.5800      57
157.6000      58
157.6200      65
157.6400      88
157.6600     114
157.6800     115
157.7000     106
157.7200      92
157.7400      77
157.7600      64
157.7800      58
157.8000      87
157.8200     122
157.8400     122
157.8600     108
157.8800      92
157.9000      80
157.9200      90
157.9400     107
157.9600     117
157.9800     120
158.0000      96
158.0200      64
158.0400      39
158.0600      25
158.0800      54
158.1000      94
158.1200     104
158.1400      99
158.1600      78
158.1800      55
158.2000      58
158.2200      68
158.2400      55
158.2600      39
158.2800      55
158.3000      80
158.3200      91
158.3400     100
158.3600     121
158.3800     140
158.4000     124
158.4200      95
158.4400      71
158.4600      54
158.4800      65
158.5000      82
158.5200      74
158.5400      57
158.5600      44
158.5800      39
158.6000      72
158.6200     114
158.6400     123
158.6600     117
158.6800     104
158.7000      88
158.7200      72
158.7400      59
158.7600      63
158.7800      74
158.8000      90
158.8200     105
158.8400     103
158.8600      96
158.8800      92
158.9000      89
158.9200      78
158.9400      67
158.9600      69
158.9800      74
159.0000      66
159.0200      55
159.0400      61
159.0600      69
159.0800      58
159.1000      47
159.1200      70
159.1400     101
159.1600     108
159.1800     105
159.2000      96
159.2200      86
159.2400      89
159.2600      92
159.2800      67
159.3000      39
159.3200      56
159.3400      85
159.3600      92
159.3800      90
159.4000      83
159.4200      75
159.4400      65
159.4600      57
159.4800      56
159.5000      59
159.5200      67
159.5400      78
159.5600      94
159.5800     106
159.6000      88
159.6200      62
159.6400      58
159.6600      61
159.6800      62
159.7000      65
159.7200      83
159.7400      97
159.7600      63
159.7800      18
159.8000      20
159.8200      36
159.8400      32
159.8600      25
159.8800      44
159.9000      68
159.9200      62
159.9400      49
159.9600      60
159.9800      75
160.0000      68
160.0200      53
160.0400      41
160.0600      35
160.0800      48
160.1000      66
160.1200      75
160.1400      85
160.1600     115
160.1800     145
160.2000     135
160.2200     108
160.2400      76
160.2600      46
160.2800      33
160.3000      34
160.3200      70
160.3400     110
160.3600      98
160.3800      74
160.4000      90
160.4200     113
160.4400      89
160.4600      56
160.4800      67
160.5000      87
160.5200      72
160.5400      47
160.5600      50
160.5800      64
160.6000      78
160.6200      87
160.6400      66
160.6600      37
160.6800      21
160.7000      19
160.7200      56
160.7400      99
160.7600      98
160.7800      85
160.8000      94
160.8200     104
160.8400      77
160.8600      41
160.8800      35
160.9000      43
160.9200      56
160.9400      68
160.9600      62
160.9800      48
161.0000      36
161.0200      32
161.0400      68
161.0600     110
161.0800     107
161.1000      88
161.1200      87
161.1400      91
161.1600      82
161.1800      69
161.2000      61
161.2200      59
161.2400      75
161.2600      89
161.2800      55
161.3000      14
161.3200      36
161.3400      76
161.3600      76
161.3800      62
161.4000      55
161.4200      51
161.4400      52
161.4600      55
161.4800      65
161.5000      72
161.5200      57
161.5400      35
161.5600      23
161.5800      20
161.6000      39
161.6200      59
161.6400      40
161.6600      12
161.6800      14
161.7000      29
161.7200      44
161.7400      58
161.7600      59
161.7800      55
161.8000      52
161.8200      48
161.8400      31
161.8600      16
161.8800      34
161.9000      60
161.9200      58
161.9400      49
161.9600      65
161.9800      84