File: XRD_Tool/log/LDA_sample_name_56789_Psi-24_20180623-130441.txt
138.0000     148
138.0200     142
138.0400     131
138.0600     124
138.0800     139
138.1000     156
138.1200     138
138.1400     110
138.1600     107
138.1800     117
138.2000     145
138.2200     171
138.2400     145
138.2600     104
138.2800      85
138.3000      80
138.3200      98
138.3400     124
138.3600     142
138.3800     153
138.4000     147
138.4200     133
138.4400     106
138.4600      80
138.4800      84
138.5000      98
138.5200     103
138.5400     109
138.5600     134
138.5800     155
138.6000     124
138.6200      79
138.6400      69
138.6600      76
138.6800      98
138.7000     119
138.7200     105
138.7400      81
138.7600      77
138.7800      83
138.8000      99
138.8200     114
138.8400     101
138.8600      82
138.8800      88
138.9000     103
138.9200     114
138.9400     122
138.9600     115
138.9800     109
139.0000     133
139.0200     158
139.0400     125
139.0600      79
139.0800      83
139.1000     106
139.1200     124
139.1400     132
139.1600     103
139.1800      69
139.2000      83
139.2200     112
139.2400     116
139.2600     112
139.2800     117
139.3000     122
139.3200     113
139.3400      99
139.3600      84
139.3800      71
139.4000      76
139.4200      87
139.4400      93
139.4600      99
139.4800     117
139.5000     131
139.5200     107
139.5400      74
139.5600      77
139.5800      95
139.6000     110
139.6200     120
139.6400     113
139.6600     102
139.6800     101
139.7000     104
139.7200      99
139.7400      89
139.7600      72
139.7800      58
139.8000      76
139.8200     100
139.8400      96
139.8600      86
139.8800     111
139.9000     143
139.9200     148
139.9400     135
139.9600      87
139.9800      39
140.0000      56
140.0200      95
140.0400     107
140.0600     109
140.0800     106
140.1000     104
140.1200     112
140.1400     124
140.1600     133
140.1800     137
140.2000     121
140.2200     101
140.2400     102
140.2600     113
140.2800     129
140.3000     141
140.3200     123
140.3400      98
140.3600      93
140.3800      98
140.4000     108
140.4200     116
140.4400     104
140.4600      85
140.4800      73
140.5000      70
140.5200     102
140.5400     140
140.5600     136
140.5800     121
140.6000     133
140.6200     150
140.6400     144
140.6600     131
140.6800     133
140.7000     137
140.7200     121
140.7400     100
140.7600      99
140.7800     104
140.8000     107
140.8200     113
140.8400     138
140.8600     164
140.8800     161
140.9000     149
140.9200     144
140.9400     143
140.9600     145
140.9800     148
141.0000     146
141.0200     144
141.0400     149
141.0600     150
141.0800     119
141.1000      82
141.1200      78
141.1400      94
141.1600     135
141.1800     177
141.2000     171
141.2200     144
141.2400     114
141.2600      89
141.2800     100
141.3000     124
141.3200     138
141.3400     147
141.3600     150
141.3800     149
141.4000     143
141.4200     133
141.4400     114
141.4600      97
141.4800     105
141.5000     119
141.5200     113
141.5400     103
141.5600     110
141.5800     120
141.6000     108
141.6200      91
141.6400      87
141.6600      90
141.6800      97
141.7000     105
141.7200     114
141.7400     125
141.7600     136
141.7800     142
141.8000     118
141.8200      90
141.8400      99
141.8600     118
141.8800     117
141.9000     106
141.9200      90
141.9400      81
141.9600     115
141.9800     158
142.0000     153
142.0200     131
142.0400     124
142.0600     120
142.0800     108
142.1000      96
142.1200     109
142.1400     123
142.1600      99
142.1800      67
142.2000      76
142.2200     101
142.2400     116
142.2600     121
142.2800      89
142.3000      53
142.3200      64
142.3400      95
142.3600     133
142.3800     165
142.4000     157
142.4200     132
142.4400     103
142.4600      78
142.4800      75
142.5000      87
142.5200     132
142.5400     178
142.5600     159
142.5800     122
142.6000     122
142.6200     130
142.6400     111
142.6600      90
142.6800     114
142.7000     149
142.7200     148
142.7400     133
142.7600     123
142.7800     115
142.8000     110
142.8200     109
142.8400     121
142.8600     134
142.8800     121
142.9000     103
142.9200     118
142.9400     143
142.9600     153
142.9800     154
143.0000     142
143.0200     125
143.0400     113
143.0600     104
143.0800     103
143.1000     108
143.1200     123
143.1400     139
143.1600     137
143.1800     125
143.2000     106
143.2200      88
143.2400      87
143.2600      91
143.2800      85
143.3000      82
143.3200     117
143.3400     158
143.3600     154
143.3800     133
143.4000     117
143.4200     104
143.4400      96
143.4600      88
143.4800      67
143.5000      45
143.5200      43
143.5400      58
143.5600     116
143.5800     175
143.6000     149
143.6200      99
143.6400     101
143.6600     118
143.6800     112
143.7000      96
143.7200      83
143.7400      75
143.7600      84
143.7800      98
143.8000     107
143.8200     114
143.8400     128
143.8600     136
143.8800     109
143.9000      73
143.9200      67
143.9400      77
143.9600     107
143.9800     137
144.0000     129
144.0200     111
144.0400     126
144.0600     151
144.0800     159
144.1000     156
144.1200     123
144.1400      83
144.1600      65
144.1800      60
144.2000      82
144.2200     109
144.2400     116
144.2600     118
144.2800     138
144.3000     158
144.3200     136
144.3400     102
144.3600      85
144.3800      75
144.4000      65
144.4200      58
144.4400      66
144.4600      79
144.4800      85
144.5000      88
144.5200      83
144.5400      74
144.5600      63
144.5800      55
144.6000      65
144.6200      83
144.6400      96
144.6600     109
144.6800     124
144.7000     135
144.7200     124
144.7400     108
144.7600     112
144.7800     124
144.8000     133
144.8200     138
144.8400     131
144.8600     120
144.8800     116
144.9000     111
144.9200      94
144.9400      77
144.9600      84
144.9800      94
145.0000      77
145.0200      56
145.0400      68
145.0600      91
145.0800      94
145.1000      88
145.1200      74
145.1400      60
145.1600      66
145.1800      83
145.2000     117
145.2200     149
145.2400     146
145.2600     128
145.2800     110
145.3000      93
145.3200      79
145.3400      73
145.3600      97
145.3800     126
145.4000     122
145.4200     103
145.4400      81
145.4600      59
145.4800      50
145.5000      49
145.5200      65
145.5400      84
145.5600      86
145.5800      80
145.6000      62
145.6200      46
145.6400      57
145.6600      80
145.6800     106
145.7000     127
145.7200     113
145.7400      88
145.7600      76
145.7800      77
145.8000     113
145.8200     151
145.8400     124
145.8600      81
145.8800      83
145.9000     100
145.9200     102
145.9400      96
145.9600      77
145.9800      59
146.0000      76
146.0200     100
146.0400      97
146.0600      86
146.0800      90
146.1000      97
146.1200      84
146.1400      69
146.1600      81
146.1800      99
146.2000     100
146.2200      96
146.2400     102
146.2600     110
146.2800     108
146.3000     104
146.3200     107
146.3400     108
146.3600      86
146.3800      62
146.4000      83
146.4200     116
146.4400     126
146.4600     123
146.4800     110
146.5000      98
146.5200     118
146.5400     140
146.5600     117
146.5800      81
146.6000      73
146.6200      78
146.6400      86
146.6600      95
146.6800      98
146.7000      98
146.7200      98
146.7400      99
146.7600     110
146.7800     123
146.8000     134
146.8200     143
146.8400     144
146.8600     138
146.8800     112
146.9000      81
146.9200      67
146.9400      64
146.9600      91
146.9800     122
147.0000     121
147.0200     107
147.0400      90
147.0600      77
147.0800      91
147.1000     113
147.1200     130
147.1400     139
147.1600     123
147.1800     101
147.2000     101
147.2200     106
147.2400      99
147.2600      90
147.2800      93
147.3000      98
147.3200      93
147.3400      83
147.3600      76
147.3800      74
147.4000      92
147.4200     116
147.4400     130
147.4600     138
147.4800     136
147.5000     126
147.5200      96
147.5400      67
147.5600      83
147.5800     109
147.6000      94
147.6200      67
147.6400      68
147.6600      82
147.6800     104
147.7000     125
147.7200     120
147.7400     105
147.7600      98
147.7800      96
147.8000     106
147.8200     115
147.8400     101
147.8600      77
147.8800      58
147.9000      50
147.9200      92
147.9400     145
147.9600     155
147.9800     145
148.0000     125
148.0200     101
148.0400      80
148.0600      67
148.0800      91
148.1000     122
148.1200     121
148.1400     108
148.1600      99
148.1800      90
148.2000      79
148.2200      73
148.2400      97
148.2600     126
148.2800     118
148.3000     102
148.3200     113
148.3400     128
148.3600     106
148.3800      72
148.4000      48
148.4200      33
148.4400      40
148.4600      55
148.4800      65
148.5000      72
148.5200      79
148.5400      86
148.5600     101
148.5800     116
148.6000     116
148.6200     112
148.6400     118
148.6600     124
148.6800     109
148.7000      89
148.7200      92
148.7400     104
148.7600     113
148.7800     120
148.8000     125
148.8200     125
148.8400     107
148.8600      84
148.8800      78
148.9000      78
148.9200      79
148.9400      82
148.9600      87
148.9800      95
149.0000     113
149.0200     129
149.0400     118
149.0600     103
149.0800     123
149.1000     148
149.1200     123
149.1400      86
149.1600      86
149.1800      99
149.2000     109
149.2200     115
149.2400     111
149.2600     102
149.2800      93
149.3000      88
149.3200     111
149.3400     135
149.3600     106
149.3800      67
149.4000      81
149.4200     112
149.4400     120
149.4600     120
149.4800     130
149.5000     137
149.5200     112
149.5400      82
149.5600      92
149.5800     109
149.6000      80
149.6200      44
149.6400      69
149.6600     114
149.6800     133
149.7000     135
149.7200     112
149.7400      82
149.7600      75
149.7800      79
149.8000      88
149.8200      96
149.8400      86
149.8600      72
149.8800      81
149.9000      97
149.9200      98
149.9400      90
149.9600      60
149.9800      30
150.0000      39
150.0200      65
150.0400     101
150.0600     130
150.0800     109
150.1000      73
150.1200      65
150.1400      68
150.1600      66
150.1800      66
150.2000      86
150.2200     110
150.2400     114
150.2600     109
150.2800     101
150.3000      92
150.3200      91
150.3400      95
150.3600     109
150.3800     123
150.4000     117
150.4200     107
150.4400     117
150.4600     130
150.4800     113
150.5000      92
150.5200     104
150.5400     127
150.5600     130
150.5800     126
150.6000     124
150.6200     122
150.6400     120
150.6600     114
150.6800      90
150.7000      63
150.7200      64
150.7400      76
150.7600      85
150.7800      91
150.8000      87
150.8200      81
150.8400      86
150.8600      93
150.8800      84
150.9000      71
150.9200      73
150.9400      79
150.9600      76
150.9800      73
151.0000      82
151.0200      93
151.0400      91
151.0600      81
151.0800      66
151.1000      55
151.1200      79
151.1400     109
151.1600     101
151.1800      81
151.2000      84
151.2200      95
151.2400      98
151.2600      97
151.2800      96
151.3000      97
151.3200     111
151.3400     127
151.3600     125
151.3800     117
151.4000     119
151.4200     121
151.4400     105
151.4600      82
151.4800      67
151.5000      60
151.5200      80
151.5400     105
151.5600     103
151.5800      91
151.6000      77
151.6200      65
151.6400      63
151.6600      66
151.6800      73
151.7000      76
151.7200      54
151.7400      30
151.7600      46
151.7800      72
151.8000      68
151.8200      60
151.8400      95
151.8600     136
151.8800     119
151.9000      84
151.9200      79
151.9400      84
151.9600      86
151.9800      83
152.0000      68
152.0200      55
152.0400      79
152.0600     113
152.0800     129
152.1000     132
152.1200     111
152.1400      87
152.1600      93
152.1800     109
152.2000     110
152.2200     109
152.2400     121
152.2600     136
152.2800     131
152.3000     120
152.3200     114
152.3400     110
152.3600     108
152.3800     105
152.4000      97
152.4200      90
152.4400      98
152.4600     107
152.4800      93
152.5000      75
152.5200      92
152.5400     115
152.5600     105
152.5800      86
152.6000      92
152.6200     104
152.6400     101
152.6600      91
152.6800      84
152.7000      78
152.7200      71
152.7400      69
152.7600     102
152.7800     142
152.8000     154
152.8200     153
152.8400     148
152.8600     143
152.8800     140
152.9000     135
152.9200     118
152.9400      98
152.9600      88
152.9800      83
153.0000      78
153.0200      77
153.0400      88
153.0600     101
153.0800      99
153.1000      90
153.1200      76
153.1400      66
153.1600      89
153.1800     120
153.2000     123
153.2200     117
153.2400     122
153.2600     129
153.2800     118
153.3000     101
153.3200      92
153.3400      93
153.3600     126
153.3800     158
153.4000     118
153.4200      61
153.4400      61
153.4600      83
153.4800     108
153.5000     126
153.5200     101
153.5400      66
153.5600      69
153.5800      84
153.6000      84
153.6200      81
153.6400      88
153.6600      99
153.6800     107
153.7000     112
153.7200     112
153.7400     108
153.7600      94
153.7800      77
153.8000      65
153.8200      59
153.8400      75
153.8600      96
153.8800     102
153.9000     104
153.9200     117
153.9400     129
153.9600     108
153.9800      80
154.0000      80
154.0200      88
154.0400      74
154.0600      58
154.0800      71
154.1000      95
154.1200     122
154.1400     141
154.1600     117
154.1800      83
154.2000      87
154.2200     105
154.2400     115
154.2600     119
154.2800     113
154.3000     106
154.3200     114
154.3400     123
154.3600     105
154.3800      82
154.4000      81
154.4200      88
154.4400      90
154.4600      89
154.4800      86
154.5000      84
154.5200      92
154.5400     102
154.5600     104
154.5800     101
154.6000      95
154.6200      86
154.6400      75
154.6600      70
154.6800     102
154.7000     139
154.7200     131
154.7400     106
154.7600      86
154.7800      76
154.8000     104
154.8200     137
154.8400     117
154.8600      82
154.8800      85
154.9000      99
154.9200      90
154.9400      82
154.9600     124
154.9800     173
155.0000     159
155.0200     120
155.0400      91
155.0600      68
155.0800      60
155.1000      59
155.1200      66
155.1400      73
155.1600      60
155.1800      45
155.2000      53
155.2200      72
155.2400      96
155.2600     118
155.2800     119
155.3000     113
155.3200     120
155.3400     129
155.3600     121
155.3800     104
155.4000      72
155.4200      42
155.4400      51
155.4600      72
155.4800      83
155.5000      88
155.5200      91
155.5400      92
155.5600      88
155.5800      81
155.6000      69
155.6200      60
155.6400      71
155.6600      88
155.6800      87
155.7000      78
155.7200      65
155.7400      59
155.7600      92
155.7800     132
155.8000     132
155.8200     118
155.8400     119
155.8600     122
155.8800     113
155.9000     100
155.9200      91
155.9400      86
155.9600      96
155.9800     111
156.0000     121
156.0200     127
156.0400     124
156.0600     120
156.0800     126
156.1000     134
156.1200     129
156.1400     120
156.1600     118
156.1800     120
156.2000     132
156.2200     143
156.2400     130
156.2600     108
156.2800      85
156.3000      68
156.3200      89
156.3400     118
156.3600     109
156.3800      87
156.4000      80
156.4200      83
156.4400     113
156.4600     140
156.4800     107
156.5000      58
156.5200      52
156.5400      61
156.5600      55
156.5800      47
156.6000      56
156.6200      68
156.6400      63
156.6600      53
156.6800      53
156.7000      58
156.7200      70
156.7400      78
156.7600      54
156.7800      26
156.8000      35
156.8200      57
156.8400      74
156.8600      90
156.8800     114
156.9000     133
156.9200     104
156.9400      63
156.9600      58
156.9800      68
157.0000      75
157.0200      78
157.0400      69
157.0600      58
157.0800      57
157.1000      61
157.1200      63
157.1400      65
157.1600      64
157.1800      63
157.2000      70
157.2200      80
157.2400      87
157.2600      93
157.2800      97
157.3000     101
157.3200     102
157.3400     101
157.3600      96
157.3800      91
157.4000      86
157.4200      82
157.4400      80
157.4600      80
157.4800      92
157.5000     104
157.5200      96
157.5400      83
157.5600      85
157.5800      90
157.6000      83
157.6200      72
157.6400      68
157.6600      67
157.6800      73
157.7000      80
157.7200      85
157.7400      87
157.7600      77
157.7800      66
157.8000      67
157.8200      70
157.8400      56
157.8600      41
157.8800      53
157.9000      70
157.9200      62
157.9400      51
157.9600      75
157.9800     110
158.0000     130
158.0200     138
158.0400     114
158.0600      82
158.0800      68
158.1000      64
158.1200      65
158.1400      70
158.1600      77
158.1800      82
158.2000      73
158.2200      62
158.2400      61
158.2600      65
158.2800      67
158.3000      70
158.3200      73
158.3400      77
158.3600      83
158.3800      89
158.4000      98
158.4200     105
158.4400      96
158.4600      88
158.4800     120
158.5000     154
158.5200     123
158.5400      72
158.5600      58
158.5800      60
158.6000      73
158.6200      91
158.6400     109
158.6600     124
158.6800     119
158.7000     108
158.7200     100
158.7400      96
158.7600     101
158.7800     107
158.8000     106
158.8200     105
158.8400     121
158.8600     136
158.8800     116
158.9000      84
158.9200      65
158.9400      52
158.9600      44
158.9800      43
159.0000      67
159.0200      94
159.0400      83
159.0600      59
159.0800      43
159.1000      39
159.1200      75
159.1400     114
159.1600      88
159.1800      49
159.2000      72
159.2200     111
159.2400     106
159.2600      86
159.2800      73
159.3000      66
159.3200      72
159.3400      80
159.3600      65
159.3800      44
159.4000      38
159.4200      40
159.4400      57
159.4600      78
159.4800      92
159.5000     100
159.5200      90
159.5400      70
159.5600      43
159.5800      21
159.6000      34
159.6200      58
159.6400      62
159.6600      61
159.6800      77
159.7000      93
159.7200      79
159.7400      60
159.7600      74
159.7800      96
159.8000      85
159.8200      64
159.8400      58
159.8600      58
159.8800      63
159.9000      71
159.9200      92
159.9400     115
159.9600     118
159.9800     113
160.0000     101
160.0200      89
160.0400      82
160.0600      80
160.0800      90
160.1000     100
160.1200      92
160.1400      78
160.1600      79
160.1800      79
160.2000      51
160.2200      16
160.2400       7
160.2600      15
160.2800      48
160.3000      84
160.3200      77
160.3400      56
160.3600      50
160.3800      49
160.4000      46
160.4200      45
160.4400      57
160.4600      71
160.4800      62
160.5000      50
160.5200      66
160.5400      90
160.5600      91
160.5800      84
160.6000      82
160.6200      84
160.6400     101
160.6600     118
160.6800     112
160.7000      98
160.7200      95
160.7400      95
160.7600      80
160.7800      63
160.8000      61
160.8200      65
160.8400      71
160.8600      75
160.8800      72
160.9000      68
160.9200      74
160.9400      79
160.9600      59
160.9800      38
161.0000      61
161.0200      96
161.0400     106
161.0600     103
161.0800      90
161.1000      71
161.1200      45
161.1400      20
161.1600      12
161.1800      13
161.2000      32
161.2200      54
161.2400      55
161.2600      47
161.2800      39
161.3000      33
161.3200      42
161.3400      53
161.3600      51
161.3800      47
161.4000      64
161.4200      82
161.4400      55
161.4600      21
161.4800      35
161.5000      71
161.5200     116
161.5400     149
161.5600     110
161.5800      53
161.6000      48
161.6200      62
161.6400      66
161.6600      68
161.6800      85
161.7000     103
161.7200     101
161.7400      87
161.7600      53
161.7800      20
161.8000      30
161.8200      56
161.8400      69
161.8600      74
161.8800      67
161.9000      59
161.9200      73
161.9400      90
161.9600      85
161.9800      73